timestamp,recordtime,lat,long,alt,speed,course,verticalAccuracy,horizontalAccuracy,locTimeStamp,accelerationX,accelerationY,accelerationZ,HeadingX,HeadingY,HeadingZ,TrueHeading,MagneticHeading,HeadingAccuracy,RotationX,RotationY,RotationZ,motionYaw,motionRoll,motionPitch,motionRotationRateX,motionRotationRateY,motionRotationRateZ,motionUserAccelerationX,motionUserAccelerationY,motionUserAccelerationZ
1,0.01,40.6833,-75.28803,108.5045,21.53,271.1804,6,5,1422118166,0.01773071,0.1218109,-1.053391,24.86165,12.82698,-22.99747,281.424,293.784,25,-0.03811356,-0.03207272,-0.05777781,0.3841676,-0.01549935,-0.0720685,-0.002645021,0.0001107333,-0.003367873,0.07028332,0.01095591,0.04010055
2,0.02,40.6833,-75.28803,108.5045,21.53,271.1804,6,5,1422118166,0.01773071,0.1218109,-1.053391,24.86165,12.82698,-22.99747,281.424,293.784,25,-0.03811356,-0.03207272,-0.05777781,0.3841676,-0.01549935,-0.0720685,-0.002645021,0.0001107333,-0.003367873,0.07028332,0.01095591,0.04010055
3,0.03,40.6833,-75.28803,108.5045,21.53,271.1804,6,5,1422118166,-0.001586914,0.07524109,-1.057617,24.79088,13.39319,-23.33844,282.2432,294.6032,25,-0.01006435,-0.02523532,-0.06374489,0.3843811,-0.0131715,-0.07283611,-0.04039887,-0.01066359,0.001324711,0.07349997,0.02020008,-0.05832566
4,0.04,40.6833,-75.28803,108.5045,21.53,271.1804,6,5,1422118166,-0.02879333,0.0231781,-1.03006,24.79088,13.39319,-23.33844,282.2432,294.6032,25,0.03290122,-0.03893062,-0.04851108,0.3843811,-0.0131715,-0.07283611,-0.04039887,-0.01066359,0.001324711,0.07349997,0.02020008,-0.05832566
5,0.05,40.6833,-75.28828,108.6083,21.53,271.1804,6,10,1422118166,-0.02879333,0.0231781,-1.03006,24.79088,13.39319,-23.33844,282.2432,294.6032,25,0.03290122,-0.03893062,-0.04851108,0.3843811,-0.0131715,-0.07283611,-0.04039887,-0.01066359,0.001324711,0.07349997,0.02020008,-0.05832566
6,0.06,40.6833,-75.28828,108.6083,21.53,271.1804,6,10,1422118166,-0.01759338,0.1141357,-1.02829,25.07394,13.46397,-23.27023,282.2912,294.6512,25,0.0111187,-0.05181073,-0.04735021,0.3845699,-0.01369209,-0.0725654,0.02726701,-0.03488785,0.01194954,-0.01513771,-0.04932363,-0.03278502
7,0.07,40.6833,-75.28828,108.6083,21.53,271.1804,6,10,1422118166,-0.008239746,0.08494568,-1.098679,24.57859,13.6763,-23.54309,282.8963,295.2563,25,0.002625078,-0.05450079,-0.04985518,0.3846301,-0.01497022,-0.07229275,0.00883408,-0.03040679,0.01175143,-0.002662826,0.04190595,-0.03101354
8,0.08,40.6833,-75.28828,108.6083,21.53,271.1804,6,10,1422118166,0.00189209,0.07757568,-1.00177,24.57859,13.6763,-23.54309,282.8963,295.2563,25,-0.002406166,-0.04721492,-0.04996436,0.3847649,-0.01533809,-0.07225785,0.000340466,-0.03309689,0.009246337,0.007057718,0.0127507,-0.1014054
9,0.09,40.6833,-75.28828,108.6083,21.53,271.1804,6,10,1422118166,0.02862549,0.03396606,-0.9453888,24.29553,13.74707,-23.40665,283.3669,295.7269,25,0.009437976,-0.02960077,-0.04265239,0.3848633,-0.01561056,-0.07231018,-0.004690773,-0.02581107,0.009137018,0.01746123,0.005328503,-0.004504785
10,0.09999999,40.6833,-75.28828,108.6083,21.53,271.1804,6,10,1422118166,0.02793884,0.005310059,-0.9844971,24.29553,13.74707,-23.40665,283.3669,295.7269,25,0.009437976,-0.02960077,-0.04265239,0.3848633,-0.01561056,-0.07231018,-0.004690773,-0.02581107,0.009137018,0.01746123,0.005328503,-0.004504785
11,0.11,40.6833,-75.28828,108.6083,21.53,271.1804,6,10,1422118166,0.02813721,0.04942322,-1.026672,24.22476,13.60551,-23.6113,283.2426,295.6026,25,0.0255509,-0.03788213,-0.04981177,0.3851244,-0.01418504,-0.07109346,0.00715964,-0.00818906,0.01644934,0.04277422,-0.03706753,0.05198478
12,0.12,40.6833,-75.28828,108.6083,21.53,271.1804,6,10,1422118166,0.008178711,0.1360779,-1.034744,24.22476,13.60551,-23.6113,283.2426,295.6026,25,0.006233927,-0.0470522,-0.06095017,0.3852807,-0.01434022,-0.07090382,0.02327257,-0.01647047,0.009289835,0.04224254,-0.06553437,0.01288775
13,0.13,40.6833,-75.28828,108.6083,21.53,271.1804,6,10,1422118166,0.008178711,0.1360779,-1.034744,24.22476,13.60551,-23.6113,283.2426,295.6026,25,-0.02574478,-0.04162015,-0.05144242,0.3852807,-0.01434022,-0.07090382,0.02327257,-0.01647047,0.009289835,0.04224254,-0.06553437,0.01288775
14,0.14,40.6833,-75.28828,108.6083,21.53,271.1804,6,10,1422118166,0.008178711,0.1360779,-1.034744,24.47243,13.00391,-23.30435,282.1982,294.5582,25,-0.02574478,-0.04162015,-0.05144242,0.3852699,-0.0145895,-0.07076203,0.003955598,-0.02564056,-0.001848635,0.04268968,-0.02127977,-0.02928111
15,0.15,40.6833,-75.28828,108.6083,21.53,271.1804,6,10,1422118166,-0.03335571,-0.01322937,-0.9588623,24.43705,12.82697,-23.27029,281.8281,294.188,25,0.003734285,-0.04708043,-0.05359931,0.385318,-0.01479553,-0.07094698,-0.0280231,-0.02020855,0.00765899,0.02293648,0.0651904,-0.03736912
16,0.16,40.6833,-75.28828,108.6083,21.53,271.1804,6,10,1422118166,0.01347351,0.03085327,-1.061966,24.43705,12.82697,-23.27029,281.8281,294.188,25,-0.02693335,-0.04533206,-0.04650412,0.385345,-0.01666082,-0.07238787,0.001449013,-0.02567593,0.005501413,-0.07714884,-0.04931442,0.06636503
17,0.17,40.6833,-75.28828,108.6083,21.53,271.1804,6,10,1422118166,0.1019287,0.08190918,-1.07431,24.5432,12.57925,-23.23615,281.8195,294.1794,25,-0.06484105,-0.04504124,-0.04928632,0.3854601,-0.01694861,-0.07257298,-0.02921861,-0.02392761,0.01259648,-0.01645253,-0.08573867,0.03836219
18,0.18,40.6833,-75.28828,108.6083,21.53,271.1804,6,10,1422118166,0.1019287,0.08190918,-1.07431,24.5432,12.57925,-23.23615,281.8195,294.1794,25,-0.06265033,-0.03628717,-0.03706108,0.3855607,-0.01717722,-0.07330234,-0.0671263,-0.02363686,0.009814082,0.09043348,0.0158441,-0.1246129
19,0.19,40.6833,-75.28828,108.6083,21.53,271.1804,6,10,1422118166,0.04785156,0.05195618,-0.9825134,24.75549,12.65004,-23.23615,281.8105,294.1705,25,-0.06116562,-0.04251417,-0.05664996,0.3860086,-0.01366288,-0.07408035,-0.0649361,-0.01486339,0.02204044,0.1155537,0.007896572,-0.07714608
20,0.2,40.6833,-75.28828,108.6083,21.53,271.1804,6,10,1422118166,-0.03297424,0.04127502,-0.9263306,24.75549,12.65004,-23.23615,281.8105,294.1705,25,-0.04448465,-0.01864506,-0.05795438,0.3860799,-0.01386461,-0.07472311,-0.06345138,-0.02109044,0.002451423,0.06167704,-0.02269742,0.01460026
21,0.21,40.6833,-75.28828,108.6083,21.53,271.1804,6,10,1422118166,-0.084198,0.02253723,-1.011246,24.75549,12.65004,-23.23615,281.8105,294.1705,25,-0.04448465,-0.01864506,-0.05795438,0.3860799,-0.01386461,-0.07472311,-0.06345138,-0.02109044,0.002451423,0.06167704,-0.02269742,0.01460026
22,0.22,40.6833,-75.28828,108.6083,21.53,271.1804,6,10,1422118166,-0.1336212,0.03578186,-1.063278,24.75549,12.79159,-23.03156,281.8052,294.1652,25,-0.09347935,-0.01613503,-0.0559365,0.3859627,-0.01386991,-0.07611053,-0.08091053,0.003101087,-0.01511877,-0.07036868,-0.05349984,-0.01423664
23,0.23,40.6833,-75.28828,108.6083,21.53,271.1804,6,10,1422118166,-0.08222961,0.06071472,-1.018417,24.61396,13.21625,-22.75873,281.8105,294.1704,25,-0.09347935,-0.01613503,-0.0559365,0.3859627,-0.01386991,-0.07611053,-0.08091053,0.003101087,-0.01511877,-0.07036868,-0.05349984,-0.01423664
24,0.24,40.6833,-75.28828,108.6083,21.53,271.1804,6,10,1422118166,-0.02400208,0.002868652,-0.9755096,24.61396,13.21625,-22.75873,281.8105,294.1704,25,-0.01599228,-0.0389213,-0.05384139,0.3859296,-0.01379483,-0.07712762,-0.0957651,0.005288585,0.003164564,-0.1198678,-0.04126932,-0.06634592
25,0.25,40.6833,-75.28828,108.6083,21.53,271.1804,6,10,1422118166,0.03076172,0.03985596,-0.942215,24.40166,13.14546,-22.55411,281.8163,294.1763,25,-0.01599228,-0.0389213,-0.05384139,0.385955,-0.01377016,-0.07793947,-0.06633291,0.002297009,0.0009846414,-0.0685017,-0.01714586,-0.02154762
26,0.26,40.6833,-75.28828,108.6083,21.53,271.1804,6,10,1422118166,0.04841614,0.1514435,-0.970459,24.40166,13.14546,-22.55411,281.8163,294.1763,25,-0.05028634,-0.03850824,-0.04922214,0.385955,-0.01377016,-0.07793947,-0.06633291,0.002297009,0.0009846414,-0.0685017,-0.01714586,-0.02154762
27,0.27,40.6833,-75.28828,108.6083,21.53,271.1804,6,10,1422118166,0.01637268,0.08047485,-0.9275513,24.50781,13.53473,-22.24719,281.8312,294.1912,25,-0.06016667,-0.03258777,-0.05181739,0.3861073,-0.01407365,-0.07874998,-0.05257208,-0.01708477,0.009878542,0.04479129,-0.03881265,0.05458713
28,0.28,40.6833,-75.28828,108.6083,21.53,271.1804,6,10,1422118166,0.01637268,0.08047485,-0.9275513,24.50781,13.53473,-22.24719,281.8312,294.1912,25,-0.0503673,-0.03235767,-0.05419346,0.3861836,-0.01422211,-0.07943365,-0.0624524,-0.01116434,0.007283164,0.06259292,0.07209335,0.02628701
29,0.29,40.6833,-75.28828,108.6083,21.53,271.1804,6,10,1422118166,-0.007675171,0.05162048,-0.868454,24.50781,13.53473,-22.24719,281.8312,294.1912,25,-0.0503673,-0.03235767,-0.05419346,0.3861836,-0.01422211,-0.07943365,-0.0624524,-0.01116434,0.007283164,0.06259292,0.07209335,0.02628701
30,0.3,40.6833,-75.28828,108.6083,21.53,271.1804,6,10,1422118166,-0.007675171,0.05162048,-0.868454,24.50781,13.53473,-22.24719,281.8312,294.1912,25,-0.0503673,-0.03235767,-0.05419346,0.3861836,-0.01422211,-0.07943365,-0.0624524,-0.01116434,0.007283164,0.06259292,0.07209335,0.02628701
31,0.31,40.6833,-75.28828,108.6083,21.53,271.1804,6,10,1422118166,-0.06533813,0.07559204,-0.9898071,24.68472,13.78245,-22.07669,281.8644,294.2244,25,-0.0146631,-0.04261564,-0.05871098,0.386253,-0.01461061,-0.08025662,-0.00241754,-0.013425,0.0004418539,-0.01754143,-0.03620991,0.04605222
32,0.32,40.6833,-75.28828,108.6083,21.53,271.1804,6,10,1422118166,-0.05958557,0.08821106,-0.9855194,24.68472,13.78245,-22.07669,281.8644,294.2244,25,-0.01333072,-0.05119421,-0.0512496,0.3862696,-0.01484367,-0.08036759,-0.01694881,-0.02119242,0.0003889944,-0.05054292,-0.004689062,0.006855324
33,0.33,40.6833,-75.28828,108.6083,21.53,271.1804,6,10,1422118166,0.02374268,0.04798889,-0.9470367,24.89701,13.6409,-22.28134,281.8756,294.2356,25,0.01639176,-0.06900357,-0.0545205,0.3863423,-0.01513684,-0.08067077,-0.01561642,-0.02977104,0.007850247,-0.04449853,0.007627764,0.01111428
34,0.34,40.6833,-75.28828,108.6083,21.53,271.1804,6,10,1422118166,0.04702759,0.0914917,-0.9732361,24.89701,13.6409,-22.28134,281.8756,294.2356,25,0.01169767,-0.07900427,-0.05569788,0.3863991,-0.01558224,-0.08057974,0.01410605,-0.04758042,0.004579288,0.01792669,-0.008287976,0.03087492
35,0.35,40.6833,-75.28828,108.6083,21.53,271.1804,6,10,1422118166,0.02972412,0.1326447,-1.044769,24.96778,13.78244,-22.07669,281.8892,294.2492,25,0.005162538,-0.05693599,-0.05595461,0.3864441,-0.01619579,-0.08048528,0.009411973,-0.05758117,0.003401775,0.03988533,-0.03240953,0.04959534
36,0.36,40.6833,-75.28828,108.6083,21.53,271.1804,6,10,1422118166,-0.008544922,0.1123657,-1.02713,24.96778,13.78244,-22.07669,281.8892,294.2492,25,-0.007278685,-0.04734594,-0.05246188,0.3864441,-0.01619579,-0.08048528,0.009411973,-0.05758117,0.003401775,0.03988533,-0.03240953,0.04959534
37,0.37,40.6833,-75.28828,108.6083,21.53,271.1804,6,10,1422118166,-0.008544922,0.1123657,-1.02713,24.96778,13.78244,-22.07669,281.8892,294.2492,25,-0.007278685,-0.04734594,-0.05246188,0.3864441,-0.01619579,-0.08048528,0.009411973,-0.05758117,0.003401775,0.03988533,-0.03240953,0.04959534
38,0.38,40.6833,-75.28828,108.6083,21.53,271.1804,6,10,1422118166,-0.008544922,0.1123657,-1.02713,24.96778,13.78244,-22.07669,281.8892,294.2492,25,-0.007278685,-0.04734594,-0.05246188,0.3864441,-0.01619579,-0.08048528,0.009411973,-0.05758117,0.003401775,0.03988533,-0.03240953,0.04959534
39,0.39,40.6833,-75.28828,108.6083,21.53,271.1804,6,10,1422118166,-0.02774048,0.01599121,-0.9981842,24.82625,13.49934,-22.07669,281.8969,294.2569,25,0.009885387,-0.04939338,-0.05229729,0.3866015,-0.01713422,-0.08058425,-0.00603701,-0.01842645,0.00659905,0.008532858,0.03186866,-0.03052159
40,0.4,40.6833,-75.28828,108.6083,21.53,271.1804,6,10,1422118166,-0.0320282,0.06962585,-1.018646,24.9324,13.39317,-22.11078,281.8998,294.2598,25,-0.009617474,-0.05113056,-0.05736183,0.3867367,-0.01773815,-0.0805078,0.00157485,-0.03183478,0.004328385,-0.01006071,-0.06442965,-0.001580015
41,0.41,40.6833,-75.28828,108.6083,21.53,271.1804,6,10,1422118166,-0.0320282,0.06962585,-1.018646,24.9324,13.39317,-22.11078,281.8998,294.2598,25,-0.009617474,-0.05113056,-0.05736183,0.3867367,-0.01773815,-0.0805078,0.00157485,-0.03183478,0.004328385,-0.01006071,-0.06442965,-0.001580015
42,0.42,40.6833,-75.28828,108.6083,21.53,271.1804,6,10,1422118166,-0.06417847,0.06930542,-0.9590759,24.72012,13.53472,-22.24719,281.9078,294.2678,25,0.002206962,-0.03106364,-0.0537583,0.386761,-0.01807721,-0.08060374,-0.01190314,-0.02970776,0.001737001,-0.01401067,-0.01089064,-0.02205582
43,0.43,40.6833,-75.28828,108.6083,21.53,271.1804,6,10,1422118166,-0.06965637,0.07685852,-0.9230804,24.72012,13.53472,-22.24719,281.9078,294.2678,25,0.002113218,-0.02612614,-0.05380411,0.3868101,-0.01817983,-0.08069153,-7.869711E-005,-0.009640891,0.005340395,-0.04131331,0.01728114,-0.02975518
44,0.44,40.6833,-75.28828,108.6083,21.53,271.1804,6,10,1422118166,-0.001907349,0.08395386,-0.9812164,24.43705,13.39317,-22.17905,281.9166,294.2766,25,0.0007297061,-0.02239985,-0.04156342,0.3868816,-0.01824452,-0.08067455,-0.0001724354,-0.004703436,0.00529446,-0.04599429,-0.01128165,0.03750576
45,0.45,40.6833,-75.28828,108.6083,21.53,271.1804,6,10,1422118166,-0.001907349,0.08395386,-0.9812164,24.43705,13.39317,-22.17905,281.9166,294.2766,25,0.0007297061,-0.02239985,-0.04156342,0.3868816,-0.01824452,-0.08067455,-0.0001724354,-0.004703436,0.00529446,-0.04599429,-0.01128165,0.03750576
46,0.46,40.6833,-75.28828,108.6083,21.53,271.1804,6,10,1422118166,-0.001907349,0.08395386,-0.9812164,24.43705,13.39317,-22.17905,281.9166,294.2766,25,0.0007297061,-0.02239985,-0.04156342,0.3868816,-0.01824452,-0.08067455,-0.0001724354,-0.004703436,0.00529446,-0.04599429,-0.01128165,0.03750576
47,0.47,40.6833,-75.28828,108.6083,21.53,271.1804,6,10,1422118166,-0.02081299,0.03982544,-0.9774628,25.00317,13.3224,-22.31546,281.9173,294.2773,25,-0.052872,0.03183702,-0.04619945,0.3872672,-0.01762517,-0.08087666,-0.001598504,0.0002712907,0.01998076,0.0156593,0.003165337,0.01536002
48,0.48,40.6833,-75.28828,108.6083,21.53,271.1804,6,10,1422118166,-0.05084229,-0.01062012,-0.9862366,25.357,13.53473,-22.52002,281.918,294.278,25,-0.03084979,0.03114966,-0.04477733,0.387509,-0.01705034,-0.08193855,-0.05515866,0.05326304,0.01289889,0.01365063,0.002518952,0.03913311
49,0.49,40.6833,-75.28828,108.6083,21.53,271.1804,6,10,1422118166,-0.08465576,0.04130554,-0.9483185,25.357,13.53473,-22.52002,281.918,294.278,25,-0.03084979,0.03114966,-0.04477733,0.387509,-0.01705034,-0.08193855,-0.05515866,0.05326304,0.01289889,0.01365063,0.002518952,0.03913311
50,0.5,40.6833,-75.28828,108.6083,21.53,271.1804,6,10,1422118166,-0.04582214,0.05976868,-0.9790039,25.28624,13.25163,-22.52002,281.9129,294.2729,25,-0.06656624,0.04629719,-0.05136226,0.3876898,-0.01642068,-0.08236792,-0.03313644,0.05257563,0.01432089,-0.00444871,-0.04244937,0.01901255
51,0.51,40.6833,-75.28828,108.6083,21.53,271.1804,6,10,1422118166,-0.09309387,0.04566956,-0.973465,25.28624,13.25163,-22.52002,281.9129,294.2729,25,-0.0653308,0.04754036,-0.05627766,0.3876536,-0.01710144,-0.07947507,-0.06883299,0.06771563,0.007735466,-0.06760914,-0.03808589,0.04837927
52,0.52,40.6833,-75.28828,108.6083,21.53,271.1804,6,10,1422118166,-0.06817627,0.05331421,-0.9066925,25.357,12.82697,-22.24719,281.899,294.259,25,-0.06694122,0.06604719,-0.05154548,0.3876594,-0.01638032,-0.08018701,-0.06759755,0.06895874,0.00281994,-0.02949518,-0.02033243,0.01764911
53,0.53,40.6833,-75.28828,108.6083,21.53,271.1804,6,10,1422118166,-0.06817627,0.05331421,-0.9066925,25.357,12.82697,-22.24719,281.899,294.259,25,-0.02018996,0.05237293,-0.05225202,0.3876594,-0.01638032,-0.08018701,-0.06759755,0.06895874,0.00281994,-0.02949518,-0.02033243,0.01764911
54,0.54,40.6833,-75.28828,108.6083,21.53,271.1804,6,10,1422118166,-0.06817627,0.05331421,-0.9066925,25.357,12.82697,-22.24719,281.899,294.259,25,-0.02018996,0.05237293,-0.05225202,0.3876594,-0.01638032,-0.08018701,-0.06759755,0.06895874,0.00281994,-0.02949518,-0.02033243,0.01764911
55,0.55,40.6833,-75.28828,108.6083,21.53,271.1804,6,10,1422118166,-0.06817627,0.05331421,-0.9066925,25.357,12.82697,-22.24719,281.899,294.259,25,-0.02018996,0.05237293,-0.05225202,0.3876594,-0.01638032,-0.08018701,-0.06759755,0.06895874,0.00281994,-0.02949518,-0.02033243,0.01764911
56,0.56,40.6833,-75.28828,108.6083,21.53,271.1804,6,10,1422118166,-0.01464844,0.0846405,-1.037216,25.85236,12.4023,-22.52002,281.8708,294.2308,25,-0.06013391,0.02917173,-0.04992282,0.3877036,-0.01555147,-0.08066905,-0.00861862,0.05435426,0.005910503,-0.02989462,-0.003936682,0.03730742
57,0.57,40.6833,-75.28828,108.6083,21.53,271.1804,6,10,1422118166,0.003662109,0.06481934,-1.040619,25.53391,12.57925,-22.62238,281.8497,294.2097,25,-0.02695439,0.02256203,-0.05326642,0.3877891,-0.01500049,-0.08122692,-0.06239583,0.05057732,0.009173543,-0.01828318,0.03583626,-0.01975139
58,0.58,40.6833,-75.28828,108.6083,21.53,271.1804,6,10,1422118166,0.02471924,0.04753113,-1.013153,25.53391,12.57925,-22.62238,281.8497,294.2097,25,0.001621066,-0.0002042645,-0.05404459,0.3877891,-0.01500049,-0.08122692,-0.06239583,0.05057732,0.009173543,-0.01828318,0.03583626,-0.01975139
59,0.59,40.6833,-75.28828,108.6083,21.53,271.1804,6,10,1422118166,0.0357666,0.07809448,-0.9828796,25.357,12.54386,-22.86108,281.8299,294.1899,25,0.007898403,-0.008694422,-0.05391383,0.3879129,-0.01410248,-0.08174767,-0.0006408809,0.02120141,0.005051523,0.01771703,-0.01683731,-0.04405748
60,0.6,40.6833,-75.28828,108.6083,21.53,271.1804,6,10,1422118166,0.03158569,0.1038361,-1.087585,25.357,12.54386,-22.86108,281.8299,294.1899,25,-0.002111887,0.002184857,-0.05164082,0.3879564,-0.01396162,-0.08170035,0.005636461,0.01271121,0.005182157,0.03863383,-0.03407837,-0.01658583
61,0.61,40.6833,-75.28828,108.6083,21.53,271.1804,6,10,1422118166,0.03158569,0.1038361,-1.087585,25.357,12.4023,-23.54312,281.8053,294.1653,25,-0.002111887,0.002184857,-0.05164082,0.3879564,-0.01396162,-0.08170035,0.005636461,0.01271121,0.005182157,0.03863383,-0.03407837,-0.01658583
62,0.62,40.6833,-75.28828,108.6083,21.53,271.1804,6,10,1422118166,0.03158569,0.1038361,-1.087585,25.357,12.4023,-23.54312,281.8053,294.1653,25,-0.002111887,0.002184857,-0.05164082,0.3879564,-0.01396162,-0.08170035,0.005636461,0.01271121,0.005182157,0.03863383,-0.03407837,-0.01658583
63,0.63,40.6833,-75.28828,108.6083,21.53,271.1804,6,10,1422118166,-0.06910706,0.0458374,-0.9434967,25.78159,12.6854,-23.81598,281.7836,294.1436,25,0.02127733,-0.004660266,-0.05383687,0.3882194,-0.01185149,-0.08236624,-0.006818276,0.02475751,0.003738086,0.009003416,0.04350506,-0.07667184
64,0.64,40.6833,-75.28828,108.6083,21.53,271.1804,6,10,1422118166,-0.09963989,0.06547546,-0.9465179,25.78159,12.6854,-23.81598,281.7836,294.1436,25,0.03293958,-0.03529141,-0.06328762,0.3882512,-0.01170273,-0.08223267,0.01901253,0.01675413,0.005259154,-0.02988676,0.01246447,0.01313886
65,0.65,40.6833,-75.28828,108.6083,21.53,271.1804,6,10,1422118166,-0.06126404,0.1118469,-1.071869,25.67545,13.07468,-24.05469,281.7704,294.1304,25,0.02175882,-0.0281347,-0.05853335,0.3882356,-0.01176029,-0.08188892,0.03067478,-0.01387706,-0.00419173,-0.05738645,-0.03596003,0.05308335
66,0.66,40.6833,-75.28828,108.6083,21.53,271.1804,6,10,1422118166,0.006744385,0.09378052,-1.109085,25.67545,13.07468,-24.05469,281.7704,294.1304,25,0.03494973,-0.02032818,-0.04252003,0.3879391,-0.01529364,-0.08117458,0.01949679,-0.006739786,0.000561346,-0.0843972,-0.01561,0.05007265
67,0.67,40.6833,-75.28828,108.6083,21.53,271.1804,6,10,1422118166,0.05041504,0.1198273,-0.995575,25.85236,12.96851,-24.70261,281.7529,294.1129,25,0.05111485,-0.03230201,-0.04718802,0.3879391,-0.01529364,-0.08117458,0.01949679,-0.006739786,0.000561346,-0.0843972,-0.01561,0.05007265
68,0.68,40.6833,-75.28828,108.6083,21.53,271.1804,6,10,1422118166,0.09967041,0.1091156,-0.8991089,25.85236,12.96851,-24.70261,281.7529,294.1129,25,0.06849677,-0.04912467,-0.0382864,0.3882328,-0.01539295,-0.08041447,0.04885282,-0.01090717,0.01190649,0.02208698,0.01345268,-0.1124347
69,0.69,40.6833,-75.28828,108.6083,21.53,271.1804,6,10,1422118166,0.03227234,0.08636475,-1.016861,25.99389,12.89773,-24.83902,281.7332,294.0932,25,0.06849677,-0.04912467,-0.0382864,0.3882328,-0.01539295,-0.08041447,0.04885282,-0.01090717,0.01190649,0.02208698,0.01345268,-0.1124347
70,0.7,40.6833,-75.28828,108.6083,21.53,271.1804,6,10,1422118166,0.03227234,0.08636475,-1.016861,25.99389,12.89773,-24.83902,281.7332,294.0932,25,0.06849677,-0.04912467,-0.0382864,0.3882328,-0.01539295,-0.08041447,0.04885282,-0.01090717,0.01190649,0.02208698,0.01345268,-0.1124347
71,0.71,40.6833,-75.28828,108.6083,21.53,271.1804,6,10,1422118166,0.03227234,0.08636475,-1.016861,25.99389,12.89773,-24.83902,281.7332,294.0932,25,0.06849677,-0.04912467,-0.0382864,0.3882328,-0.01539295,-0.08041447,0.04885282,-0.01090717,0.01190649,0.02208698,0.01345268,-0.1124347
72,0.72,40.6833,-75.28828,108.6083,21.53,271.1804,6,10,1422118166,-0.1354523,0.04156494,-0.9885406,26.1708,12.86235,-24.8049,281.7117,294.0717,25,0.02138758,-0.0071663,-0.06241358,0.3888977,-0.01388728,-0.07857358,0.02508048,0.01936355,0.005285317,-0.1009021,0.02253569,-0.07386015
73,0.73,40.6833,-75.28828,108.6083,21.53,271.1804,6,10,1422118166,-0.07983398,0.02110291,-0.9601898,26.24157,12.57925,-24.94131,281.6846,294.0446,25,0.03993091,-0.02026106,-0.05476471,0.3888968,-0.01368682,-0.07839402,0.01912433,0.01423826,-0.003319219,-0.1218079,-0.0367488,0.008294738
74,0.74,40.6833,-75.28828,108.6083,21.53,271.1804,6,10,1422118166,-0.02070618,-0.01300049,-1.078766,26.24157,12.57925,-24.94131,281.6846,294.0446,25,0.03420697,-0.04139058,-0.05339212,0.3889249,-0.01366686,-0.07801232,0.03770366,0.001096975,0.00520307,-0.06620912,-0.05683032,0.03667565
75,0.75,40.6833,-75.28828,108.6083,21.53,271.1804,6,10,1422118166,0.01776123,0.09057617,-1.075928,25.99389,12.82696,-24.83902,281.6641,294.0241,25,0.01173362,-0.022129,-0.04147234,0.3890012,-0.01378318,-0.07762235,0.03197973,-0.02003259,0.006575531,-0.006964933,-0.09054492,-0.08187167
76,0.76,40.6833,-75.28828,108.6083,21.53,271.1804,6,10,1422118166,0.05403137,0.1305389,-1.087097,25.99389,12.82696,-24.83902,281.6641,294.0241,25,0.01173362,-0.022129,-0.04147234,0.3890012,-0.01378318,-0.07762235,0.03197973,-0.02003259,0.006575531,-0.006964933,-0.09054492,-0.08187167
77,0.77,40.6833,-75.28828,108.6083,21.53,271.1804,6,10,1422118166,0.05403137,0.1305389,-1.087097,25.99389,12.82696,-24.83902,281.6641,294.0241,25,-0.0004492753,-0.02001445,-0.05388161,0.3890012,-0.01378318,-0.07762235,0.03197973,-0.02003259,0.006575531,-0.006964933,-0.09054492,-0.08187167
78,0.78,40.6833,-75.28828,108.6083,21.53,271.1804,6,10,1422118166,0.05403137,0.1305389,-1.087097,25.99389,12.82696,-24.83902,281.6641,294.0241,25,-0.0004492753,-0.02001445,-0.05388161,0.3890012,-0.01378318,-0.07762235,0.03197973,-0.02003259,0.006575531,-0.006964933,-0.09054492,-0.08187167
79,0.79,40.6833,-75.28828,108.6083,21.53,271.1804,6,10,1422118166,0.05403137,0.1305389,-1.087097,25.99389,12.82696,-24.83902,281.6641,294.0241,25,-0.0004492753,-0.02001445,-0.05388161,0.3890012,-0.01378318,-0.07762235,0.03197973,-0.02003259,0.006575531,-0.006964933,-0.09054492,-0.08187167
80,0.8,40.6833,-75.28828,108.6083,21.53,271.1804,6,10,1422118166,-0.04696655,0.0476532,-1.079163,26.13542,12.54385,-24.22513,281.6154,293.9754,25,-0.05605635,0.01193283,-0.06078878,0.3893486,-0.01360683,-0.07751843,-0.003204877,0.0272866,0.0107593,0.05509997,-0.009630755,-0.02372522
81,0.81,40.6833,-75.28828,108.6083,21.53,271.1804,6,10,1422118166,-0.08164978,0.05627441,-1.071686,26.13542,12.6854,-23.74771,281.5943,293.9543,25,-0.05887344,0.0267384,-0.04866128,0.389334,-0.01310721,-0.07795525,-0.05828356,0.03329061,-0.0008217143,0.007344987,-0.06559299,0.02507563
82,0.82,40.6833,-75.28828,108.6083,21.53,271.1804,6,10,1422118166,-0.1024628,0.001922607,-1.012985,26.13542,12.6854,-23.74771,281.5943,293.9543,25,-0.0586966,0.01931085,-0.05350664,0.3894085,-0.01264107,-0.0786299,-0.06110065,0.04809612,0.01130559,-0.06904811,-0.02227449,-0.07485518
83,0.83,40.6833,-75.28828,108.6083,21.53,271.1804,6,10,1422118166,-0.03691101,0.02191162,-0.9177399,25.74621,12.93312,-23.91824,281.5825,293.9425,25,-0.07405905,-0.005805159,-0.06200878,0.3894085,-0.01264107,-0.0786299,-0.06110065,0.04809612,0.01130559,-0.06904811,-0.02227449,-0.07485518
84,0.84,40.6833,-75.28828,108.6083,21.53,271.1804,6,10,1422118166,0.01889038,0.04942322,-0.9988708,25.74621,12.93312,-23.91824,281.5825,293.9425,25,-0.00210443,0.00462165,-0.05903482,0.3895062,-0.01189431,-0.08000781,-0.07628625,0.01555246,-0.002042164,-0.02505503,-0.05801085,0.07899071
85,0.85,40.6833,-75.28828,108.6083,21.53,271.1804,6,10,1422118166,0.03846741,0.118927,-1.086395,25.74621,12.93312,-23.91824,281.5825,293.9425,25,-0.00210443,0.00462165,-0.05903482,0.3895062,-0.01189431,-0.08000781,-0.07628625,0.01555246,-0.002042164,-0.02505503,-0.05801085,0.07899071
86,0.86,40.6833,-75.28828,108.6083,21.53,271.1804,6,10,1422118166,0.03846741,0.118927,-1.086395,25.74621,12.93312,-23.91824,281.5825,293.9425,25,-0.00210443,0.00462165,-0.05903482,0.3895062,-0.01189431,-0.08000781,-0.07628625,0.01555246,-0.002042164,-0.02505503,-0.05801085,0.07899071
87,0.87,40.6833,-75.28828,108.6083,21.53,271.1804,6,10,1422118166,0.01194763,-0.01507568,-0.9698792,25.64006,12.89773,-23.6113,281.5491,293.9091,25,-0.02494556,-0.01692918,-0.05780391,0.3895523,-0.01177046,-0.08158664,-0.07003979,0.005859749,0.005470757,0.03017891,0.07322796,-0.02198059
88,0.88,40.6833,-75.28828,108.6083,21.53,271.1804,6,10,1422118166,0.0136261,0.04499817,-0.9902954,25.64006,12.89773,-23.6113,281.5491,293.9091,25,-0.002483398,-0.03984595,-0.05863269,0.3896022,-0.01167522,-0.08203502,-0.02717275,0.004428275,0.002162246,0.01302425,-0.006442553,-0.00193555
89,0.89,40.6833,-75.28828,108.6083,21.53,271.1804,6,10,1422118166,0.04585266,0.115036,-1.085358,25.10932,12.79156,-23.57721,281.5403,293.9003,25,-0.0268918,-0.04657709,-0.0489497,0.3896014,-0.01181643,-0.08212682,-0.00471058,-0.01848854,0.00133334,0.02372396,-0.09711021,0.02668076
90,0.9,40.6833,-75.28828,108.6083,21.53,271.1804,6,10,1422118166,0.04585266,0.115036,-1.085358,25.10932,12.79156,-23.57721,281.5403,293.9003,25,-0.0268918,-0.04657709,-0.0489497,0.3896014,-0.01181643,-0.08212682,-0.00471058,-0.01848854,0.00133334,0.02372396,-0.09711021,0.02668076
91,0.91,40.6833,-75.28828,108.6083,21.53,271.1804,6,10,1422118166,0.0007629395,0.1193237,-1.064789,24.57858,12.96851,-23.54312,281.5399,293.8999,25,-0.0453254,-0.04209099,-0.04914731,0.3896014,-0.01181643,-0.08212682,-0.00471058,-0.01848854,0.00133334,0.02372396,-0.09711021,0.02668076
92,0.92,40.6833,-75.28828,108.6083,21.53,271.1804,6,10,1422118166,-0.02697754,0.04632568,-0.9991455,24.57858,12.96851,-23.54312,281.5399,293.8999,25,-0.01113042,-0.03634283,-0.05628085,0.3897969,-0.01233672,-0.08289251,-0.04755257,-0.02073367,0.01081846,0.05814672,0.03223839,-0.08886712
93,0.93,40.6833,-75.28828,108.6083,21.53,271.1804,6,10,1422118166,-0.04081726,0.04167175,-1.015762,24.57858,12.96851,-23.54312,281.5399,293.8999,25,-0.01113042,-0.03634283,-0.05628085,0.3897969,-0.01233672,-0.08289251,-0.04755257,-0.02073367,0.01081846,0.05814672,0.03223839,-0.08886712
94,0.94,40.6833,-75.28828,108.6083,21.53,271.1804,6,10,1422118166,-0.03012085,0.111145,-1.042877,24.7555,12.79156,-23.168,281.5344,293.8943,25,-0.002824282,-0.02377777,-0.05386749,0.3898362,-0.01262891,-0.08334835,-0.0475792,-0.01461518,-0.001524285,-0.02823252,-0.04158013,-0.01931326
95,0.95,40.6833,-75.28828,108.6083,21.53,271.1804,6,10,1422118166,-0.01264954,0.07980347,-1.04155,24.7555,12.65001,-23.23621,281.5251,293.8851,25,0.02692696,-0.04404522,-0.05465845,0.3898635,-0.01267909,-0.08364782,-0.005051438,-0.00242061,0.00609782,-0.01748643,0.02759471,-0.04645373
96,0.96,40.6833,-75.28828,108.6083,21.53,271.1804,6,10,1422118166,0.004180908,0.09332275,-0.9283905,24.7555,12.65001,-23.23621,281.5251,293.8851,25,0.04053118,-0.05234949,-0.05323846,0.389916,-0.01288217,-0.08345448,0.0246998,-0.02268811,0.005306732,0.0001874449,-0.003554175,-0.04511267
97,0.97,40.6833,-75.28828,108.6083,21.53,271.1804,6,10,1422118166,0.006942749,0.1164398,-0.9321136,24.64935,12.11919,-23.20212,281.5057,293.8657,25,0.03905073,-0.03880146,-0.05337454,0.3900004,-0.01317789,-0.08306118,0.03830403,-0.03099242,0.006726597,0.01731298,0.01035705,0.06807537
98,0.98,40.6833,-75.28828,108.6083,21.53,271.1804,6,10,1422118166,0.0003356934,0.1085815,-1.082474,24.64935,12.11919,-23.20212,281.5057,293.8657,25,-0.0004386226,-0.0224619,-0.04894464,0.3900603,-0.0134127,-0.08254933,0.03682359,-0.01744444,0.006590383,0.02030937,0.03398422,0.06439145
99,0.9899999,40.6833,-75.28828,108.6083,21.53,271.1804,6,10,1422118166,-0.02210999,0.07478333,-1.05307,25.03856,11.94225,-23.09985,281.4799,293.8398,25,0.04703036,-0.01139726,-0.04495602,0.3900603,-0.0134127,-0.08254933,0.03682359,-0.01744444,0.006590383,0.02030937,0.03398422,0.06439145
100,1,40.6833,-75.28828,108.6083,21.53,271.1804,6,10,1422118166,-0.04060364,0.08309937,-0.9826355,25.03856,11.94225,-23.09985,281.4799,293.8398,25,0.01034745,-0.007415839,-0.05759059,0.3903777,-0.01283957,-0.08291181,0.04479905,0.009962947,0.01500893,0.01313081,0.02576469,-0.08599111
101,1.01,40.6833,-75.28828,108.6083,21.53,271.1804,6,10,1422118166,-0.04060364,0.08309937,-0.9826355,25.03856,11.94225,-23.09985,281.4799,293.8398,25,0.01034745,-0.007415839,-0.05759059,0.3903777,-0.01283957,-0.08291181,0.04479905,0.009962947,0.01500893,0.01313081,0.02576469,-0.08599111
102,1.02,40.6833,-75.28828,108.6083,21.53,271.1804,6,10,1422118166,-0.04060364,0.08309937,-0.9826355,25.03856,11.94225,-23.09985,281.4799,293.8398,25,0.01034745,-0.007415839,-0.05759059,0.3903777,-0.01283957,-0.08291181,0.04479905,0.009962947,0.01500893,0.01313081,0.02576469,-0.08599111
103,1.03,40.6833,-75.28828,108.6083,21.53,271.1804,6,10,1422118166,-0.07093811,0.06495667,-0.9736176,25.07394,11.7653,-23.20212,281.4504,293.8104,25,0.01909726,-0.01586179,-0.06112514,0.3904757,-0.01225398,-0.0824247,0.03928684,0.0468258,0.003568003,-0.02839157,0.0007679596,0.01389468
104,1.04,40.6833,-75.28851,107.2106,20.85,272.2026,6,5,1422118167,-0.0534668,0.0740509,-1.076111,24.7555,11.37603,-23.09979,281.416,293.7759,25,0.02995843,-0.01184521,-0.05124028,0.3903567,-0.01439556,-0.07937846,0.03029436,0.0058379,0.003863844,-0.05816003,-0.06081673,-0.09056289
105,1.05,40.6833,-75.28851,107.2106,20.85,272.2026,6,5,1422118167,-0.0534668,0.0740509,-1.076111,24.82626,11.80068,-22.96338,281.3906,293.7506,25,0.02995843,-0.01184521,-0.05124028,0.3903567,-0.01439556,-0.07937846,0.03029436,0.0058379,0.003863844,-0.05816003,-0.06081673,-0.09056289
106,1.06,40.6833,-75.28851,107.2106,20.85,272.2026,6,5,1422118167,-0.01899719,0.05130005,-0.9612885,24.82626,11.80068,-22.96338,281.3906,293.7506,25,0.02094922,0.01262099,-0.05399719,0.3903479,-0.01433553,-0.07914247,0.01688135,0.005485518,-0.001161672,-0.05664794,-0.01410321,0.02314989
107,1.07,40.6833,-75.28851,107.2106,20.85,272.2026,6,5,1422118167,0.005142212,0.0696106,-1.020493,24.82626,11.80068,-22.96338,281.3906,293.7506,25,0.02508431,-0.009534117,-0.05990328,0.3905286,-0.01393075,-0.07864674,0.01873332,0.0339682,0.00596602,-0.06680124,-0.03899965,-0.04402031
108,1.08,40.6833,-75.28851,107.2106,20.85,272.2026,6,5,1422118167,0.03813171,0.0566864,-1.100998,25.18009,11.94225,-22.89517,281.367,293.727,25,0.01693504,0.02982261,-0.05173084,0.3905337,-0.01398055,-0.07732096,0.02287431,0.01181169,5.963241E-005,-0.00505887,-0.02594389,0.03562634
109,1.09,40.6833,-75.28851,107.2106,20.85,272.2026,6,5,1422118167,0.03813171,0.0566864,-1.100998,25.18009,11.94225,-22.89517,281.367,293.727,25,0.01693504,0.02982261,-0.05173084,0.3905337,-0.01398055,-0.07732096,0.02287431,0.01181169,5.963241E-005,-0.00505887,-0.02594389,0.03562634
110,1.1,40.6833,-75.28851,107.2106,20.85,272.2026,6,5,1422118167,0.03813171,0.0566864,-1.100998,25.18009,11.94225,-22.89517,281.367,293.727,25,0.01693504,0.02982261,-0.05173084,0.3905337,-0.01398055,-0.07732096,0.02287431,0.01181169,5.963241E-005,-0.00505887,-0.02594389,0.03562634
111,1.11,40.6833,-75.28851,107.2106,20.85,272.2026,6,5,1422118167,-0.001235962,0.02415466,-0.993454,25.1447,11.83608,-22.92926,281.342,293.702,25,0.003900732,0.01093867,-0.06027,0.390767,-0.01313287,-0.07726011,-0.04569728,0.01506915,0.0006752993,0.03891119,0.02369259,-0.09788717
112,1.12,40.6833,-75.28851,107.2106,20.85,272.2026,6,5,1422118167,-0.07365417,-0.01799011,-0.9702454,25.78159,11.41142,-22.99747,281.3041,293.6641,25,0.0103043,-0.003728692,-0.0613105,0.390767,-0.01313287,-0.07726011,-0.04569728,0.01506915,0.0006752993,0.03891119,0.02369259,-0.09788717
113,1.13,40.6833,-75.28851,107.2106,20.85,272.2026,6,5,1422118167,-0.1025238,0.03507996,-0.9992981,26.02927,11.37604,-24.25922,281.2613,293.6212,25,-0.01943415,0.01775183,-0.06544505,0.3908168,-0.01188445,-0.07854789,0.008087395,0.01762055,-0.00134787,0.01061157,-0.05431248,0.003392319
114,1.14,40.6833,-75.28851,107.2106,20.85,272.2026,6,5,1422118167,-0.07771301,0.1051025,-1.120926,26.02927,11.37604,-24.25922,281.2613,293.6212,25,-0.01943415,0.01775183,-0.06544505,0.3908168,-0.01188445,-0.07854789,0.008087395,0.01762055,-0.00134787,0.01061157,-0.05431248,0.003392319
115,1.15,40.6833,-75.28851,107.2106,20.85,272.2026,6,5,1422118167,-0.05429077,0.0528717,-1.055069,26.02927,11.37604,-24.25922,281.2613,293.6212,25,-0.06112381,0.01924001,-0.05598391,0.3907568,-0.01144247,-0.07865629,-0.02165105,0.03910101,-0.005482619,-0.09111696,-0.04349526,-0.002455169
116,1.16,40.6833,-75.28851,107.2106,20.85,272.2026,6,5,1422118167,0.006668091,0.02085876,-0.9586029,26.1708,10.66827,-24.66846,281.2027,293.5627,25,-0.06112381,0.01924001,-0.05598391,0.3907568,-0.01144247,-0.07865629,-0.02165105,0.03910101,-0.005482619,-0.09111696,-0.04349526,-0.002455169
117,1.17,40.6833,-75.28851,107.2106,20.85,272.2026,6,5,1422118167,0.006668091,0.02085876,-0.9586029,26.1708,10.66827,-24.66846,281.2027,293.5627,25,-0.06112381,0.01924001,-0.05598391,0.3907422,-0.01101873,-0.07884465,-0.02051148,0.04162111,-0.0005814705,-0.06672874,0.02633955,-0.124093
118,1.18,40.6833,-75.28851,107.2106,20.85,272.2026,6,5,1422118167,0.006668091,0.02085876,-0.9586029,26.1708,10.66827,-24.66846,281.2027,293.5627,25,-0.06112381,0.01924001,-0.05598391,0.3907422,-0.01101873,-0.07884465,-0.02051148,0.04162111,-0.0005814705,-0.06672874,0.02633955,-0.124093
119,1.19,40.6833,-75.28851,107.2106,20.85,272.2026,6,5,1422118167,0.006668091,0.02085876,-0.9586029,26.1708,10.66827,-24.66846,281.2027,293.5627,25,-0.06112381,0.01924001,-0.05598391,0.3907422,-0.01101873,-0.07884465,-0.02051148,0.04162111,-0.0005814705,-0.06672874,0.02633955,-0.124093
120,1.2,40.6833,-75.28851,107.2106,20.85,272.2026,6,5,1422118167,-0.08279419,0.04608154,-0.8730469,26.27694,10.13744,-25.17993,281.1322,293.4922,25,-0.002570217,-0.01782427,-0.1042939,0.3899305,-0.01171093,-0.07956974,0.0003691349,0.002262896,-0.07622224,0.001572287,-0.001131922,0.06480658
121,1.21,40.6833,-75.28851,107.2106,20.85,272.2026,6,5,1422118167,-0.08279419,0.04608154,-0.8730469,26.13541,9.642006,-25.93021,281.0511,293.4111,25,-0.002570217,-0.01782427,-0.1042939,0.3899305,-0.01171093,-0.07956974,0.0003691349,0.002262896,-0.07622224,0.001572287,-0.001131922,0.06480658
122,1.22,40.6833,-75.28851,107.2106,20.85,272.2026,6,5,1422118167,-0.06968689,0.05497742,-0.8959656,25.99389,9.712784,-26.13483,280.9726,293.3326,25,0.002186189,-0.02006612,-0.07966021,0.3894425,-0.01175096,-0.07958189,-0.004780349,0.003515335,-0.04433287,-0.07108069,-0.03341637,0.1237193
123,1.23,40.6833,-75.28851,107.2106,20.85,272.2026,6,5,1422118167,-0.05697632,0.02703857,-1.021042,25.99389,9.712784,-26.13483,280.9726,293.3326,25,-0.02006985,-0.02168239,-0.04297543,0.3890671,-0.01172189,-0.0796172,-2.39382E-005,0.001273439,-0.0196993,-0.0580024,-0.0245557,0.1007982
124,1.24,40.6833,-75.28851,107.2106,20.85,272.2026,6,5,1422118167,0.06802368,0.08108521,-1.010681,25.85236,9.85434,-25.862,280.9002,293.2602,25,-0.02466859,-0.03906272,-0.03794152,0.3890375,-0.01351284,-0.07760273,-0.02226755,-0.0003530848,0.01698457,-0.04350455,-0.05048629,-0.02414247
125,1.25,40.6833,-75.28851,107.2106,20.85,272.2026,6,5,1422118167,0.06802368,0.08108521,-1.010681,25.85236,9.85434,-25.862,280.9002,293.2602,25,-0.05334498,-0.07069228,-0.04895476,0.3890375,-0.01351284,-0.07760273,-0.02226755,-0.0003530848,0.01698457,-0.04350455,-0.05048629,-0.02414247
126,1.26,40.6833,-75.28851,107.2106,20.85,272.2026,6,5,1422118167,0.06802368,0.08108521,-1.010681,25.85236,9.85434,-25.862,280.9002,293.2602,25,-0.05334498,-0.07069228,-0.04895476,0.3890375,-0.01351284,-0.07760273,-0.02226755,-0.0003530848,0.01698457,-0.04350455,-0.05048629,-0.02414247
127,1.27,40.6833,-75.28851,107.2106,20.85,272.2026,6,5,1422118167,0.06802368,0.08108521,-1.010681,25.85236,9.85434,-25.862,280.9002,293.2602,25,-0.05334498,-0.07069228,-0.04895476,0.3890375,-0.01351284,-0.07760273,-0.02226755,-0.0003530848,0.01698457,-0.04350455,-0.05048629,-0.02414247
128,1.28,40.6833,-75.28851,107.2106,20.85,272.2026,6,5,1422118167,-0.05133057,0.1018982,-1.012955,25.21547,10.13744,-26.47583,280.7728,293.1328,25,-0.07317062,-0.05637193,-0.05171113,0.3897362,-0.0128462,-0.07725058,-0.04585714,-0.04172518,0.006103277,0.04871147,-0.03930146,0.06564572
129,1.29,40.6833,-75.28851,107.2106,20.85,272.2026,6,5,1422118167,-0.01670837,0.02978516,-1.036469,25.21547,10.13744,-26.47583,280.7728,293.1328,25,-0.06440482,-0.06848904,-0.04784023,0.3898295,-0.01319701,-0.07801566,-0.07535963,-0.03503057,0.00824859,-0.02807276,-0.03409804,-0.02473494
130,1.3,40.6833,-75.28851,107.2106,20.85,272.2026,6,5,1422118167,0.03210449,-0.02336121,-0.9418793,25.14471,10.70364,-26.47583,280.725,293.085,25,-0.09879795,-0.06191477,-0.04573527,0.3899302,-0.01362702,-0.07876615,-0.06659383,-0.04714773,0.01211936,-0.03774621,0.02321346,-0.01614772
131,1.31,40.6833,-75.28851,107.2106,20.85,272.2026,6,5,1422118167,0.06784058,0.01066589,-0.9019775,25.14471,10.70364,-26.47583,280.725,293.085,25,-0.05808594,-0.07822423,-0.05015505,0.3902454,-0.012234,-0.07571153,-0.1009633,-0.04056248,0.01422414,0.04430314,-0.09900042,0.05518136
132,1.32,40.6833,-75.28851,107.2106,20.85,272.2026,6,5,1422118167,0.03675842,0.03134155,-1.04361,24.9678,10.80981,-26.64633,280.6814,293.0414,25,-0.06598061,-0.04756139,-0.0541876,0.3902454,-0.012234,-0.07571153,-0.1009633,-0.04056248,0.01422414,0.04430314,-0.09900042,0.05518136
133,1.33,40.6833,-75.28851,107.2106,20.85,272.2026,6,5,1422118167,0.03675842,0.03134155,-1.04361,24.9678,10.80981,-26.64633,280.6814,293.0414,25,-0.06598061,-0.04756139,-0.0541876,0.3902454,-0.012234,-0.07571153,-0.1009633,-0.04056248,0.01422414,0.04430314,-0.09900042,0.05518136
134,1.34,40.6833,-75.28851,107.2106,20.85,272.2026,6,5,1422118167,0.03675842,0.03134155,-1.04361,24.9678,10.80981,-26.64633,280.6814,293.0414,25,-0.06598061,-0.04756139,-0.0541876,0.3902454,-0.012234,-0.07571153,-0.1009633,-0.04056248,0.01422414,0.04430314,-0.09900042,0.05518136
135,1.35,40.6833,-75.28851,107.2106,20.85,272.2026,6,5,1422118167,-0.1264954,0.0642395,-0.9743652,24.7555,10.80981,-26.85092,280.6411,293.0011,25,-0.05991979,0.01317812,-0.03748878,0.3904077,-0.01324713,-0.07907904,-0.08814629,-0.0008008673,-0.002002219,-0.1092312,0.03272821,0.03627716
136,1.36,40.6833,-75.28851,107.2106,20.85,272.2026,6,5,1422118167,-0.09425354,-0.009887695,-0.8519592,24.72012,11.1283,-26.68042,280.6077,292.9677,25,-0.05991979,0.01317812,-0.03748878,0.3904077,-0.01324713,-0.07907904,-0.08814629,-0.0008008673,-0.002002219,-0.1092312,0.03272821,0.03627716
137,1.37,40.6833,-75.28851,107.2106,20.85,272.2026,6,5,1422118167,0.001235962,-0.002822876,-0.966217,24.72012,11.1283,-26.68042,280.6077,292.9677,25,0.04033837,-0.04125077,-0.05579855,0.3904915,-0.01307509,-0.08005245,-0.06208513,0.0345302,0.02247004,-0.1134625,-0.01572747,0.02234708
138,1.38,40.6833,-75.28851,107.2106,20.85,272.2026,6,5,1422118167,0.01509094,0.1652832,-0.9503021,24.61397,11.58835,-26.37347,280.5829,292.9429,25,0.03647253,0.0339806,-0.05774586,0.3906188,-0.01294602,-0.07965413,0.03817303,-0.01989873,0.004160144,-0.08134893,-0.08945762,0.1447865
139,1.39,40.6833,-75.28851,107.2106,20.85,272.2026,6,5,1422118167,0.06825256,0.1593781,-1.095856,24.61397,11.58835,-26.37347,280.5829,292.9429,25,-0.09646981,-0.0556827,-0.04577228,0.3906422,-0.01266878,-0.07967416,0.03430719,0.05533259,0.002212708,0.01386422,-0.08241277,0.03053066
140,1.4,40.6833,-75.28851,107.2106,20.85,272.2026,6,5,1422118167,-0.03187561,-0.1080322,-0.8312225,24.79088,12.11917,-26.203,280.5684,292.9284,25,0.005034972,0.01468254,-0.0578372,0.3907354,-0.01288332,-0.08007708,-0.09863514,-0.03433076,0.01418615,0.02793262,0.08529168,0.0464107
141,1.41,40.6833,-75.28851,107.2106,20.85,272.2026,6,5,1422118167,-0.03187561,-0.1080322,-0.8312225,24.79088,12.11917,-26.203,280.5684,292.9284,25,0.005034972,0.01468254,-0.0578372,0.3907354,-0.01288332,-0.08007708,-0.09863514,-0.03433076,0.01418615,0.02793262,0.08529168,0.0464107
142,1.42,40.6833,-75.28851,107.2106,20.85,272.2026,6,5,1422118167,-0.03187561,-0.1080322,-0.8312225,24.79088,12.11917,-26.203,280.5684,292.9284,25,0.005034972,0.01468254,-0.0578372,0.3907354,-0.01288332,-0.08007708,-0.09863514,-0.03433076,0.01418615,0.02793262,0.08529168,0.0464107
143,1.43,40.6833,-75.28851,107.2106,20.85,272.2026,6,5,1422118167,-0.04933167,0.1614227,-1.034851,24.9678,12.64999,-26.44168,280.5635,292.9235,25,0.009175389,-0.008696286,-0.06127481,0.3907709,-0.01267316,-0.08048146,0.01238753,-0.01192224,-0.003504223,0.02267208,-0.1635398,0.09444613
144,1.44,40.6833,-75.28851,107.2106,20.85,272.2026,6,5,1422118167,-0.06335449,0.1066589,-1.163589,25.25085,13.07465,-26.16891,280.5628,292.9228,25,-0.0760969,-0.02685505,-0.06306285,0.3906085,-0.01198358,-0.08056007,0.007010086,0.01265545,-0.001316959,-0.03738723,0.08094978,-0.03816585
145,1.45,40.6833,-75.28851,107.2106,20.85,272.2026,6,5,1422118167,0.005599976,6.103516E-005,-0.9165497,25.25085,13.07465,-26.16891,280.5628,292.9228,25,0.003274623,-0.02239825,-0.05505686,0.3905819,-0.01206078,-0.08122183,-0.07826219,-0.00550336,-0.003105135,-0.05133376,0.02552638,-0.1669586
146,1.46,40.6833,-75.28851,107.2106,20.85,272.2026,6,5,1422118167,0.06495667,-0.02185059,-0.8851318,25.14471,13.53469,-26.33939,280.5724,292.9324,25,0.003354518,-0.02000407,-0.07227899,0.3906082,-0.01205832,-0.08154811,0.001109329,-0.001046607,0.00490073,0.01761793,-0.08139672,0.08005466
147,1.47,40.6833,-75.28851,107.2106,20.85,272.2026,6,5,1422118167,0.01382446,0.01002502,-1.066284,25.14471,13.53469,-26.33939,280.5724,292.9324,25,0.003354518,-0.02000407,-0.07227899,0.3906082,-0.01205832,-0.08154811,0.001109329,-0.001046607,0.00490073,0.01761793,-0.08139672,0.08005466
148,1.48,40.6833,-75.28851,107.2106,20.85,272.2026,6,5,1422118167,0.0002441406,0.1568909,-1.135803,25.14471,13.53469,-26.68045,280.5809,292.9409,25,0.03020983,-0.01565486,-0.07577626,0.3905643,-0.01207023,-0.08139575,0.001189226,0.001347553,-0.01232147,0.07698665,-0.1031565,0.1114848
149,1.49,40.6833,-75.28851,107.2106,20.85,272.2026,6,5,1422118167,0.0002441406,0.1568909,-1.135803,25.14471,13.53469,-26.68045,280.5809,292.9409,25,-0.05648911,-0.02640018,-0.06904352,0.3905643,-0.01207023,-0.08139575,0.001189226,0.001347553,-0.01232147,0.07698665,-0.1031565,0.1114848
150,1.5,40.6833,-75.28851,107.2106,20.85,272.2026,6,5,1422118167,0.0002441406,0.1568909,-1.135803,25.14471,13.53469,-26.68045,280.5809,292.9409,25,-0.05648911,-0.02640018,-0.06904352,0.3905643,-0.01207023,-0.08139575,0.001189226,0.001347553,-0.01232147,0.07698665,-0.1031565,0.1114848
151,1.51,40.6833,-75.28851,107.2106,20.85,272.2026,6,5,1422118167,0.0002441406,0.1568909,-1.135803,25.14471,13.53469,-26.68045,280.5809,292.9409,25,-0.05648911,-0.02640018,-0.06904352,0.3905643,-0.01207023,-0.08139575,0.001189226,0.001347553,-0.01232147,0.07698665,-0.1031565,0.1114848
152,1.52,40.6833,-75.28851,107.2106,20.85,272.2026,6,5,1422118167,-0.005157471,0.01364136,-0.9485626,24.82626,12.86232,-26.78275,280.5782,292.9382,25,0.02763616,-0.01319836,-0.06476275,0.3901468,-0.01202278,-0.0817845,0.004811943,0.00146428,-0.006149047,-0.08106579,-0.07255334,0.1426273
153,1.53,40.6833,-75.28851,107.2106,20.85,272.2026,6,5,1422118167,0.0428772,0.1474609,-1.098389,24.18938,12.36688,-26.57812,280.571,292.931,25,0.02461906,-0.04662742,-0.06694095,0.3900895,-0.01186009,-0.08155573,0.02547089,0.008153006,-0.004805939,0.006662921,-0.06782399,0.04804346
154,1.54,40.6833,-75.28851,107.2106,20.85,272.2026,6,5,1422118167,-0.007354736,0.1420288,-1.061539,24.18938,12.36688,-26.57812,280.571,292.931,25,0.008124239,-0.01493021,-0.06859877,0.3900895,-0.01186009,-0.08155573,0.02547089,0.008153006,-0.004805939,0.006662921,-0.06782399,0.04804346
155,1.55,40.6833,-75.28851,107.2106,20.85,272.2026,6,5,1422118167,-0.02737427,0.05761719,-0.9433746,23.97709,11.87145,-26.30533,280.5558,292.9158,25,-0.01590333,-0.03653245,-0.07229204,0.390044,-0.01204174,-0.08122783,0.0224538,-0.02527611,-0.006984269,0.05487895,0.0663224,-0.1017581
156,1.56,40.6833,-75.28851,107.2106,20.85,272.2026,6,5,1422118167,-0.1261444,-0.04550171,-0.9597931,23.97709,11.87145,-26.30533,280.5558,292.9158,25,0.01766049,0.0001017328,-0.07356929,0.389836,-0.01221914,-0.08130902,-0.01806859,-0.01518122,-0.01233562,-0.0151958,-0.02360227,0.0532472
157,1.57,40.6833,-75.28851,107.2106,20.85,272.2026,6,5,1422118167,-0.1261444,-0.04550171,-0.9597931,23.97709,11.87145,-26.30533,280.5558,292.9158,25,0.01766049,0.0001017328,-0.07356929,0.389836,-0.01221914,-0.08130902,-0.01806859,-0.01518122,-0.01233562,-0.0151958,-0.02360227,0.0532472
158,1.58,40.6833,-75.28851,107.2106,20.85,272.2026,6,5,1422118167,-0.1261444,-0.04550171,-0.9597931,23.97709,11.87145,-26.30533,280.5558,292.9158,25,0.01766049,0.0001017328,-0.07356929,0.389836,-0.01221914,-0.08130902,-0.01806859,-0.01518122,-0.01233562,-0.0151958,-0.02360227,0.0532472
159,1.59,40.6833,-75.28851,107.2106,20.85,272.2026,6,5,1422118167,-0.09417725,-0.04577637,-0.9328003,24.154,10.70364,-24.90707,280.4893,292.8493,25,0.01766049,0.0001017328,-0.07356929,0.389836,-0.01221914,-0.08130902,-0.01806859,-0.01518122,-0.01233562,-0.0151958,-0.02360227,0.0532472
160,1.6,40.6833,-75.28851,107.2106,20.85,272.2026,6,5,1422118167,0.04251099,0.1394958,-1.13559,24.154,10.70364,-24.90707,280.4893,292.8493,25,-0.000180296,-0.02993739,-0.06484664,0.3896069,-0.01217696,-0.08066721,0.001347474,-0.01217254,0.001316621,-0.02024209,0.08107186,-0.0591729
161,1.61,40.6833,-75.28851,107.2106,20.85,272.2026,6,5,1422118167,-0.0823822,0.009841919,-1.068665,24.33091,10.59747,-24.25916,280.4475,292.8075,25,-0.000180296,-0.02993739,-0.06484664,0.3896069,-0.01217696,-0.08066721,0.001347474,-0.01217254,0.001316621,-0.02024209,0.08107186,-0.0591729
162,1.62,40.6833,-75.28851,107.2106,20.85,272.2026,6,5,1422118167,-0.03042603,-0.05270386,-0.920166,24.33091,10.59747,-24.25916,280.4475,292.8075,25,0.0180296,-0.02452718,-0.05982658,0.3895741,-0.01230563,-0.08067849,-0.002345527,-0.008586373,-0.004890807,0.05477628,0.05890486,-0.1389178
163,1.63,40.6833,-75.28851,107.2106,20.85,272.2026,6,5,1422118167,-0.1062164,0.01324463,-0.9689484,24.5432,10.66825,-23.64532,280.4086,292.7686,25,-0.02633387,-0.005876531,-0.06405967,0.389562,-0.01236406,-0.08062521,0.01586437,-0.003176208,0.0001291228,-0.07005862,-0.07069597,-0.07198919
164,1.64,40.6833,-75.28851,107.2106,20.85,272.2026,6,5,1422118167,-0.07369995,0.03761292,-1.061859,24.5432,10.66825,-23.64532,280.4086,292.7686,25,0.02221343,0.01140605,-0.05643265,0.3895386,-0.01232069,-0.08074595,-0.02849909,0.01547437,-0.004104164,-0.09393619,-0.06741361,0.0277178
165,1.65,40.6833,-75.28851,107.2106,20.85,272.2026,6,5,1422118167,-0.07369995,0.03761292,-1.061859,24.5432,10.66825,-23.64532,280.4086,292.7686,25,0.02221343,0.01140605,-0.05643265,0.3895386,-0.01232069,-0.08074595,-0.02849909,0.01547437,-0.004104164,-0.09393619,-0.06741361,0.0277178
166,1.66,40.6833,-75.28851,107.2106,20.85,272.2026,6,5,1422118167,-0.07369995,0.03761292,-1.061859,24.5432,10.66825,-23.64532,280.4086,292.7686,25,0.02221343,0.01140605,-0.05643265,0.3895386,-0.01232069,-0.08074595,-0.02849909,0.01547437,-0.004104164,-0.09393619,-0.06741361,0.0277178
167,1.67,40.6833,-75.28851,107.2106,20.85,272.2026,6,5,1422118167,-0.03356934,0.07577515,-1.191956,24.5432,10.66825,-23.03149,280.3713,292.7313,25,0.0006870956,-0.01261007,-0.06131129,0.3895386,-0.01232069,-0.08074595,-0.02849909,0.01547437,-0.004104164,-0.09393619,-0.06741361,0.0277178
168,1.68,40.6833,-75.28851,107.2106,20.85,272.2026,6,5,1422118167,-0.0980072,0.007415771,-1.013229,24.40167,10.45592,-22.89508,280.3343,292.6942,25,0.01060364,-0.01855185,-0.06363011,0.3893819,-0.01141167,-0.08074495,-0.04915801,0.008785391,-0.005447986,0.005728495,0.01593089,-0.02846949
169,1.69,40.6833,-75.28851,107.2106,20.85,272.2026,6,5,1422118167,-0.06413269,-0.02061462,-0.9299622,23.97708,10.73902,-22.69043,280.3078,292.6678,25,0.03420697,-0.04139058,-0.05339212,0.3893316,-0.01129657,-0.08084675,0.008438445,0.002798848,-0.003675185,-0.08674777,-0.07334293,-0.01655929
170,1.7,40.6833,-75.28851,107.2106,20.85,272.2026,6,5,1422118167,-0.04266357,0.03471375,-0.9882355,23.97708,10.73902,-22.69043,280.3078,292.6678,25,-0.03737933,-0.004902347,-0.06170518,0.3893664,-0.01149129,-0.08051337,0.03204178,-0.02003993,0.006562677,-0.05267888,-0.101041,0.06673258
171,1.71,40.6833,-75.28851,107.2106,20.85,272.2026,6,5,1422118167,-0.0118866,0.09048462,-0.9255371,23.97708,10.95135,-22.55402,280.2863,292.6463,25,0.02645291,-0.018134,-0.05735597,0.3893676,-0.01145546,-0.08075369,-0.03954452,0.01644826,-0.001750509,-0.03124569,-0.04595221,0.008440319
172,1.72,40.6833,-75.28851,107.2106,20.85,272.2026,6,5,1422118167,0.01850891,0.09953308,-1.063919,23.97708,10.95135,-22.55402,280.2863,292.6463,25,0.01446815,-0.02834189,-0.06473665,0.389389,-0.01128749,-0.08058604,0.02428773,0.00321656,0.00259857,-0.0006359735,0.009985778,0.0711541
173,1.73,40.6833,-75.28851,107.2106,20.85,272.2026,6,5,1422118167,-0.01618958,-0.01223755,-1.133087,23.97708,10.95135,-22.55402,280.2863,292.6463,25,0.01446815,-0.02834189,-0.06473665,0.389389,-0.01128749,-0.08058604,0.02428773,0.00321656,0.00259857,-0.0006359735,0.009985778,0.0711541
174,1.74,40.6833,-75.28851,107.2106,20.85,272.2026,6,5,1422118167,-0.01618958,-0.01223755,-1.133087,23.97708,10.95135,-22.55402,280.2863,292.6463,25,0.01446815,-0.02834189,-0.06473665,0.389389,-0.01128749,-0.08058604,0.02428773,0.00321656,0.00259857,-0.0006359735,0.009985778,0.0711541
175,1.75,40.6833,-75.28851,107.2106,20.85,272.2026,6,5,1422118167,-0.01618958,-0.01223755,-1.133087,23.97708,10.95135,-22.55402,280.2863,292.6463,25,0.01446815,-0.02834189,-0.06473665,0.389389,-0.01128749,-0.08058604,0.02428773,0.00321656,0.00259857,-0.0006359735,0.009985778,0.0711541
176,1.76,40.6833,-75.28851,107.2106,20.85,272.2026,6,5,1422118167,-0.08784485,0.02574158,-0.9897003,24.04784,10.80979,-22.14481,280.2369,292.5969,25,0.01059086,-0.01976492,-0.05870459,0.389282,-0.01138594,-0.08025977,0.02317534,0.0006803155,-0.005988583,0.00341447,-0.02627958,0.05137328
177,1.77,40.6833,-75.28851,107.2106,20.85,272.2026,6,5,1422118167,-0.03659058,0.06587219,-1.005234,24.04784,10.80979,-22.14481,280.2369,292.5969,25,0.009588179,-0.03090971,-0.05984017,0.3893211,-0.01146923,-0.08004318,0.008385908,0.001526615,0.001309902,-0.07641259,-0.05421616,0.007032377
178,1.78,40.6833,-75.28851,107.2106,20.85,272.2026,6,5,1422118167,-0.02627563,0.01527405,-0.9907684,23.9417,10.98674,-21.63327,280.2204,292.5804,25,0.01144067,0.003675695,-0.06874018,0.3892668,-0.012772,-0.07916889,0.007387384,-0.009625299,0.0001738839,-0.02385893,-0.01321403,-0.00844729
179,1.79,40.6833,-75.28851,107.2106,20.85,272.2026,6,5,1422118167,-0.03096008,0.04429626,-0.991806,23.9417,10.98674,-21.63327,280.2204,292.5804,25,0.012968,-0.01234109,-0.06858119,0.3891736,-0.01262364,-0.0791052,0.009239884,0.02496006,-0.008726262,-0.01369181,-0.06374867,0.006024955
180,1.8,40.6833,-75.28851,107.2106,20.85,272.2026,6,5,1422118167,-0.0340271,0.03416443,-1.080612,24.18938,10.95135,-21.53091,280.2015,292.5615,25,-0.001923868,-0.00158751,-0.06757718,0.3890896,-0.01250515,-0.07892846,0.01076721,0.008943257,-0.00856734,-0.01849419,-0.03455027,0.005002791
181,1.81,40.6833,-75.28851,107.2106,20.85,272.2026,6,5,1422118167,-0.07272339,0.05432129,-1.095856,24.18938,10.95135,-21.53091,280.2015,292.5615,25,-0.001923868,-0.00158751,-0.06757718,0.3890896,-0.01250515,-0.07892846,0.01076721,0.008943257,-0.00856734,-0.01849419,-0.03455027,0.005002791
182,1.82,40.6833,-75.28851,107.2106,20.85,272.2026,6,5,1422118167,-0.07272339,0.05432129,-1.095856,24.18938,10.95135,-21.53091,280.2015,292.5615,25,-0.001923868,-0.00158751,-0.06757718,0.3890896,-0.01250515,-0.07892846,0.01076721,0.008943257,-0.00856734,-0.01849419,-0.03455027,0.005002791
183,1.83,40.6833,-75.28851,107.2106,20.85,272.2026,6,5,1422118167,-0.04400635,0.01060486,-0.9355011,23.44636,11.41141,-21.01935,280.1902,292.5502,25,0.01559867,-0.02581642,-0.05860686,0.3889214,-0.01491977,-0.07769246,-0.01991406,0.009468786,0.004680826,-0.02788092,-0.02675678,-0.06526129
184,1.84,40.6833,-75.28851,107.2106,20.85,272.2026,6,5,1422118167,-0.03627014,0.04641724,-1.123459,23.44636,11.41141,-21.01935,280.1902,292.5502,25,0.009118398,0.002322543,-0.08226265,0.388939,-0.01489314,-0.07750915,0.01340609,-0.004547209,0.001405804,-0.02915847,-0.06682671,0.061386
185,1.85,40.6833,-75.28851,107.2106,20.85,272.2026,6,5,1422118167,-0.03627014,0.04641724,-1.123459,23.44636,11.41141,-21.01935,280.1902,292.5502,25,0.01250833,0.01234109,-0.07003874,0.388786,-0.01476972,-0.07744346,0.006925824,0.02359168,-0.02225018,-0.02154522,-0.03094883,-0.1265648
186,1.86,40.6833,-75.28851,107.2106,20.85,272.2026,6,5,1422118167,-0.05401611,0.06317139,-1.06749,23.02177,11.55296,-21.08755,280.1976,292.5576,25,0.01250833,0.01234109,-0.07003874,0.388786,-0.01476972,-0.07744346,0.006925824,0.02359168,-0.02225018,-0.02154522,-0.03094883,-0.1265648
187,1.87,40.6833,-75.28851,107.2106,20.85,272.2026,6,5,1422118167,-0.08197021,0.009719849,-0.9875031,23.02177,11.55296,-21.08755,280.1976,292.5576,25,-0.01558029,0.01040923,-0.07148857,0.388786,-0.01476972,-0.07744346,0.006925824,0.02359168,-0.02225018,-0.02154522,-0.03094883,-0.1265648
188,1.88,40.6833,-75.28851,107.2106,20.85,272.2026,6,5,1422118167,0.005905151,0.02029419,-0.9514313,23.1633,11.62374,-21.15576,280.2051,292.5651,25,-0.0005195827,-0.01631133,-0.05391596,0.3884676,-0.01609951,-0.07648779,0.0103208,0.03360036,-0.01002685,-0.03796437,-0.01324184,-0.0705426
189,1.89,40.6833,-75.28851,107.2106,20.85,272.2026,6,5,1422118167,0.005905151,0.02029419,-0.9514313,23.1633,11.62374,-21.15576,280.2051,292.5651,25,-0.0005195827,-0.01631133,-0.05391596,0.3883689,-0.01582229,-0.07660491,-0.01776782,0.03166845,-0.01147681,-0.07490776,-0.03308823,-0.1052456
190,1.9,40.6833,-75.28851,107.2106,20.85,272.2026,6,5,1422118167,0.005905151,0.02029419,-0.9514313,23.1633,11.62374,-21.15576,280.2051,292.5651,25,-0.0005195827,-0.01631133,-0.05391596,0.3883689,-0.01582229,-0.07660491,-0.01776782,0.03166845,-0.01147681,-0.07490776,-0.03308823,-0.1052456
191,1.91,40.6833,-75.28851,107.2106,20.85,272.2026,6,5,1422118167,0.005905151,0.02029419,-0.9514313,23.1633,11.62374,-21.15576,280.2051,292.5651,25,-0.0005195827,-0.01631133,-0.05391596,0.3883689,-0.01582229,-0.07660491,-0.01776782,0.03166845,-0.01147681,-0.07490776,-0.03308823,-0.1052456
192,1.92,40.6833,-75.28851,107.2106,20.85,272.2026,6,5,1422118167,-0.1179657,0.02259827,-1.026947,22.80947,12.11919,-21.63321,280.2444,292.6044,25,-0.03555933,0.03092276,-0.06938813,0.3884225,-0.0142936,-0.07395354,0.004508989,0.021081,-0.01733478,0.03470082,0.008053547,-0.01093761
193,1.93,40.6833,-75.28851,107.2106,20.85,272.2026,6,5,1422118167,-0.1286469,-0.06408691,-0.9503021,22.80947,12.11919,-21.63321,280.2444,292.6044,25,0.008481103,-0.03466956,-0.06595851,0.3882714,-0.01377668,-0.07423326,-0.03773407,0.05218881,-0.009377117,-0.05054697,0.07485223,-0.1029768
194,1.94,40.6833,-75.28851,107.2106,20.85,272.2026,6,5,1422118167,-0.04592896,-0.03520203,-0.8347321,22.88024,12.11919,-21.70139,280.2654,292.6254,25,-0.00102079,0.009615876,-0.05292793,0.3882057,-0.01373988,-0.07418085,0.006306367,-0.01340356,-0.005947626,-0.104264,-0.05151457,-0.02979129
195,1.95,40.6833,-75.28851,107.2106,20.85,272.2026,6,5,1422118167,0.08937073,0.04862976,-0.9022827,22.88024,12.11919,-21.70139,280.2654,292.6254,25,0.01422794,-0.02087705,-0.05129168,0.3882417,-0.01353168,-0.0742861,-0.003195521,0.03088183,0.007082822,-0.1151529,-0.1383047,0.04684863
196,1.96,40.6833,-75.28851,107.2106,20.85,272.2026,6,5,1422118167,0.02522278,0.07736206,-1.086288,23.05716,11.94225,-21.87192,280.2803,292.6403,25,-0.0004977448,-0.01510359,-0.06007,0.388337,-0.01346774,-0.07419093,0.01205321,0.0003888337,0.008718875,0.102801,-0.02549313,0.09487596
197,1.97,40.6833,-75.28851,107.2106,20.85,272.2026,6,5,1422118167,0.02522278,0.07736206,-1.086288,23.05716,11.94225,-21.87192,280.2803,292.6403,25,-0.0004977448,-0.01510359,-0.06007,0.388337,-0.01346774,-0.07419093,0.01205321,0.0003888337,0.008718875,0.102801,-0.02549313,0.09487596
198,1.98,40.6833,-75.28851,107.2106,20.85,272.2026,6,5,1422118167,0.02522278,0.07736206,-1.086288,23.05716,11.94225,-21.87192,280.2803,292.6403,25,-0.0004977448,-0.01510359,-0.06007,0.388337,-0.01346774,-0.07419093,0.01205321,0.0003888337,0.008718875,0.102801,-0.02549313,0.09487596
199,1.99,40.6833,-75.28851,107.2106,20.85,272.2026,6,5,1422118167,-0.1598511,-0.03504944,-0.8930969,22.88024,12.18996,-21.97421,280.3038,292.6638,25,-0.06171476,-0.005573464,-0.07787829,0.3883792,-0.01164245,-0.07412793,-0.006297554,0.0109394,-0.01856337,0.04669017,0.01820984,-0.0642762
200,2,40.6833,-75.28851,107.2106,20.85,272.2026,6,5,1422118167,-0.1357727,-0.06434631,-0.8822021,22.7741,12.22535,-21.87192,280.3291,292.6891,25,0.006980412,-0.02477139,-0.05377508,0.3880196,-0.01111888,-0.0748563,-0.0007579038,0.03705959,-0.007696874,-0.1487636,-0.1098358,0.104041
201,2.01,40.6833,-75.28851,107.2106,20.85,272.2026,6,5,1422118167,-0.02302551,0.01586914,-1.056152,22.7741,12.22535,-21.87192,280.3291,292.6891,25,0.006980412,-0.02477139,-0.05377508,0.3880196,-0.01111888,-0.0748563,-0.0007579038,0.03705959,-0.007696874,-0.1487636,-0.1098358,0.104041
202,2.02,40.6833,-75.28851,107.2106,20.85,272.2026,6,5,1422118167,0.04943848,0.1333923,-1.039062,22.88024,12.54384,-22.17883,280.359,292.719,25,-0.05427336,-0.0213226,-0.05064134,0.388068,-0.01105164,-0.07475355,0.004806507,-0.003495845,0.006235125,-0.1247522,-0.1390302,0.1149442
203,2.03,40.6833,-75.28851,107.2106,20.85,272.2026,6,5,1422118167,0.1081848,0.1016388,-1.024933,22.88024,12.54384,-22.17883,280.359,292.719,25,-0.05886998,-0.03504241,-0.05546992,0.3881465,-0.01106218,-0.07519317,-0.05644726,-0.000047097,0.009368735,-0.01199482,-0.0592532,-0.05903903
204,2.04,40.6833,-75.28851,107.2106,20.85,272.2026,6,5,1422118167,0.007949829,-0.04013062,-0.9662476,22.63256,12.86233,-22.41754,280.3977,292.7577,25,-0.05666221,-0.01775423,-0.06789516,0.3881965,-0.01117864,-0.07576946,-0.06104387,-0.01376695,0.004540029,0.06058481,0.05769535,-0.04199393
205,2.05,40.6833,-75.28851,107.2106,20.85,272.2026,6,5,1422118167,0.007949829,-0.04013062,-0.9662476,22.63256,12.86233,-22.41754,280.3977,292.7577,25,0.003242665,-0.01505592,-0.06986777,0.3881965,-0.01117864,-0.07576946,-0.06104387,-0.01376695,0.004540029,0.06058481,0.05769535,-0.04199393
206,2.06,40.68331,-75.28874,108.8555,20.9,273.5324,8,10,1422118168,-0.1321259,0.04734802,-1.006485,22.49104,12.86233,-22.75854,280.4373,292.7972,25,-0.005359611,-0.01768206,-0.05763054,0.3879225,-0.01090211,-0.07703262,-0.05934795,0.03189572,-0.0118346,-0.149897,-0.04810209,-7.985031E-005
207,2.07,40.68331,-75.28874,108.8555,20.9,273.5324,8,10,1422118168,-0.1321259,0.04734802,-1.006485,22.49104,12.86233,-22.75854,280.4373,292.7972,25,-0.005359611,-0.01768206,-0.05763054,0.3879225,-0.01090211,-0.07703262,-0.05934795,0.03189572,-0.0118346,-0.149897,-0.04810209,-7.985031E-005
208,2.08,40.68331,-75.28874,108.8555,20.9,273.5324,8,10,1422118168,-0.04295349,0.05258179,-1.056641,22.42027,12.57923,-22.9632,280.4704,292.8304,25,-0.0770639,-0.04412379,-0.05308452,0.3879225,-0.01090211,-0.07703262,-0.05934795,0.03189572,-0.0118346,-0.149897,-0.04810209,-7.985031E-005
209,2.09,40.68331,-75.28874,108.8555,20.9,273.5324,8,10,1422118168,0.02944946,0.01296997,-0.9304657,22.42027,12.57923,-22.9632,280.4704,292.8304,25,0.006919159,-0.02107359,-0.05503795,0.3879535,-0.01099325,-0.07790841,-0.07923776,-0.02284858,0.006924707,-0.03199381,-0.02524783,-0.05973419
210,2.1,40.68331,-75.28874,108.8555,20.9,273.5324,8,10,1422118168,0.0958252,0.04867554,-0.9082489,22.88024,12.47307,-23.33829,280.4969,292.8569,25,-0.005017129,-0.03619236,-0.05623025,0.3879958,-0.01098812,-0.07814231,0.004745294,0.0002015632,0.004971146,0.04040383,-0.06509284,0.06642256
211,2.11,40.68331,-75.28874,108.8555,20.9,273.5324,8,10,1422118168,0.02589417,0.02922058,-1.019257,22.88024,12.47307,-23.33829,280.4969,292.8569,25,-0.0006000102,-0.004058125,-0.07491525,0.3880707,-0.01114208,-0.07815506,-0.007190989,-0.01491725,0.003778718,0.106933,-0.02939997,0.08863667
212,2.12,40.68331,-75.28874,108.8555,20.9,273.5324,8,10,1422118168,-0.03244019,0.1061707,-0.9434052,22.7741,12.22536,-22.82675,280.5191,292.8791,25,-0.0006000102,-0.004058125,-0.07491525,0.3880707,-0.01114208,-0.07815506,-0.007190989,-0.01491725,0.003778718,0.106933,-0.02939997,0.08863667
213,2.13,40.68331,-75.28874,108.8555,20.9,273.5324,8,10,1422118168,-0.03244019,0.1061707,-0.9434052,22.7741,12.22536,-22.82675,280.5191,292.8791,25,0.005592105,-0.01371874,-0.06003085,0.3879088,-0.01103541,-0.07819528,-0.002773867,0.01721696,-0.01490635,0.03689564,-0.04889504,-0.02237299
214,2.14,40.68331,-75.28874,108.8555,20.9,273.5324,8,10,1422118168,-0.03244019,0.1061707,-0.9434052,22.7741,12.22536,-22.82675,280.5191,292.8791,25,0.005592105,-0.01371874,-0.06003085,0.3879088,-0.01103541,-0.07819528,-0.002773867,0.01721696,-0.01490635,0.03689564,-0.04889504,-0.02237299
215,2.15,40.68331,-75.28874,108.8555,20.9,273.5324,8,10,1422118168,-0.01707458,0.02967834,-0.979599,23.1633,12.04842,-22.72443,280.5349,292.8948,25,0.02546089,-0.03172624,-0.05355457,0.3878114,-0.01079722,-0.07829993,-0.009035216,0.02203586,-0.007631921,-0.08870812,-0.01295811,-0.01815189
216,2.16,40.68331,-75.28874,108.8555,20.9,273.5324,8,10,1422118168,-0.007003784,0.04199219,-0.9694977,23.30482,12.75619,-22.1788,280.5649,292.9249,25,-0.002914297,-0.01762187,-0.0576103,0.3878346,-0.0108043,-0.07814895,0.02328704,-0.01045129,0.006453942,-0.1319443,-0.07614681,0.05180612
217,2.17,40.68331,-75.28874,108.8555,20.9,273.5324,8,10,1422118168,0.07266235,0.07901001,-0.9193115,23.30482,12.75619,-22.1788,280.5649,292.9249,25,0.03162104,-0.03404452,-0.05348107,0.3878687,-0.01088808,-0.07816233,-0.005088136,0.003653032,0.002398085,-0.006219962,-0.04840443,0.01728879
218,2.18,40.68331,-75.28874,108.8555,20.9,273.5324,8,10,1422118168,0.01808167,0.04766846,-0.9921265,23.65865,13.03929,-22.1788,280.5962,292.9562,25,0.0008351673,-0.01757953,-0.06863659,0.3879193,-0.0109327,-0.07799783,0.02944721,-0.01276969,0.006527121,0.08356159,0.001091236,0.07758861
219,2.19,40.68331,-75.28874,108.8555,20.9,273.5324,8,10,1422118168,-0.02793884,0.0459137,-0.9822388,23.65865,13.03929,-22.1788,280.5962,292.9562,25,0.0200552,0.001412274,-0.06987496,0.3879193,-0.0109327,-0.07799783,0.02944721,-0.01276969,0.006527121,0.08356159,0.001091236,0.07758861
220,2.2,40.68331,-75.28874,108.8555,20.9,273.5324,8,10,1422118168,-0.05726624,0.09571838,-1.04921,23.62326,13.21623,-21.80365,280.632,292.992,25,-0.001758219,-0.01267026,-0.06133153,0.3877823,-0.01072922,-0.07774997,0.01788138,0.02268702,-0.009867028,-0.01724225,-0.03175796,0.01468284
221,2.21,40.68331,-75.28874,108.8555,20.9,273.5324,8,10,1422118168,-0.05726624,0.09571838,-1.04921,23.62326,13.21623,-21.80365,280.632,292.992,25,-0.001758219,-0.01267026,-0.06133153,0.3877823,-0.01072922,-0.07774997,0.01788138,0.02268702,-0.009867028,-0.01724225,-0.03175796,0.01468284
222,2.22,40.68331,-75.28874,108.8555,20.9,273.5324,8,10,1422118168,-0.05726624,0.09571838,-1.04921,23.62326,13.21623,-21.80365,280.632,292.992,25,-0.001758219,-0.01267026,-0.06133153,0.3877823,-0.01072922,-0.07774997,0.01788138,0.02268702,-0.009867028,-0.01724225,-0.03175796,0.01468284
223,2.23,40.68331,-75.28874,108.8555,20.9,273.5324,8,10,1422118168,-0.003250122,0.01704407,-1.011124,23.65864,13.11006,-22.04236,280.6646,293.0246,25,-0.01664103,-0.001922003,-0.06155604,0.3878096,-0.0105015,-0.07763898,0.01831176,-0.005639812,0.005138232,-0.01623321,-0.08047543,0.05622829
224,2.24,40.68331,-75.28874,108.8555,20.9,273.5324,8,10,1422118168,0.01115417,0.05656433,-0.9875336,23.62326,13.21623,-22.07651,280.6995,293.0594,25,0.01636859,-0.004769988,-0.05142032,0.3878122,-0.0103979,-0.07781444,-0.01881483,0.01935258,-0.001548563,0.007116131,-0.06069187,-0.01420357
225,2.25,40.68331,-75.28874,108.8555,20.9,273.5324,8,10,1422118168,0.03288269,0.05764771,-1.015686,23.62326,13.21623,-22.07651,280.6995,293.0594,25,0.01636859,-0.004769988,-0.05142032,0.3878122,-0.0103979,-0.07781444,-0.01881483,0.01935258,-0.001548563,0.007116131,-0.06069187,-0.01420357
226,2.26,40.68331,-75.28874,108.8555,20.9,273.5324,8,10,1422118168,-0.04777527,-0.01063538,-1.012131,23.62326,12.72079,-22.34933,280.7239,293.0839,25,-0.004246677,-0.009043296,-0.06507168,0.3878876,-0.01020108,-0.07797961,0.01419479,0.01650455,0.008587032,0.02132408,-0.02133627,0.009375689
227,2.27,40.68331,-75.28874,108.8555,20.9,273.5324,8,10,1422118168,-0.03137207,0.0625,-0.9480896,23.62326,12.72079,-22.34933,280.7239,293.0839,25,0.003735083,0.02202141,-0.06651565,0.387867,-0.01012859,-0.07798183,-0.006420473,0.01223119,-0.005064466,0.04298032,-0.02025511,-0.01877622
228,2.28,40.68331,-75.28874,108.8555,20.9,273.5324,8,10,1422118168,-0.08621216,0.06236267,-1.011429,23.5525,12.43769,-22.48575,280.7428,293.1028,25,-0.01057461,0.0006972156,-0.06152834,0.3877819,-0.009749128,-0.07806841,0.001561295,0.04329583,-0.006508628,-0.02165279,-0.01548913,0.04881723
229,2.29,40.68331,-75.28874,108.8555,20.9,273.5324,8,10,1422118168,-0.08621216,0.06236267,-1.011429,23.5525,12.43769,-22.48575,280.7428,293.1028,25,0.00685258,-0.01615207,-0.05876931,0.3877819,-0.009749128,-0.07806841,0.001561295,0.04329583,-0.006508628,-0.02165279,-0.01548913,0.04881723
230,2.3,40.68331,-75.28874,108.8555,20.9,273.5324,8,10,1422118168,-0.08621216,0.06236267,-1.011429,23.5525,12.43769,-22.48575,280.7428,293.1028,25,0.00685258,-0.01615207,-0.05876931,0.3877819,-0.009749128,-0.07806841,0.001561295,0.04329583,-0.006508628,-0.02165279,-0.01548913,0.04881723
231,2.31,40.68331,-75.28874,108.8555,20.9,273.5324,8,10,1422118168,-0.08621216,0.06236267,-1.011429,23.5525,12.43769,-22.48575,280.7428,293.1028,25,0.00685258,-0.01615207,-0.05876931,0.3877819,-0.009749128,-0.07806841,0.001561295,0.04329583,-0.006508628,-0.02165279,-0.01548913,0.04881723
232,2.32,40.68331,-75.28874,108.8555,20.9,273.5324,8,10,1422118168,0.01777649,0.0375824,-1.023575,23.5525,12.15458,-23.09961,280.7688,293.1288,25,-0.0117504,-0.001801629,-0.06151556,0.3878214,-0.009058885,-0.07853077,-0.004202566,0.02096904,0.003474515,0.0001349684,-0.01855933,0.05615753
233,2.33,40.68331,-75.28874,108.8555,20.9,273.5324,8,10,1422118168,-0.01502991,0.02230835,-1.040604,23.5525,12.15458,-23.09961,280.7688,293.1288,25,0.00263866,0.01581412,-0.06769703,0.3878317,-0.00885861,-0.0786088,-0.01392416,0.01947256,-0.001509189,0.02660763,-0.04094546,-0.02670203
234,2.34,40.68331,-75.28874,108.8555,20.9,273.5324,8,10,1422118168,-0.0173645,0.04589844,-1.023499,23.44635,11.97764,-23.20187,280.7788,293.1388,25,0.001651959,0.0009981528,-0.06142714,0.3877507,-0.008509849,-0.07886723,0.000464897,0.03708828,-0.007690714,-0.006546612,-0.05647715,-0.04374814
235,2.35,40.68331,-75.28874,108.8555,20.9,273.5324,8,10,1422118168,-0.07038879,0.04402161,-1.038681,23.44635,11.97764,-23.20187,280.7788,293.1388,25,0.00492525,0.02329121,-0.06528846,0.3877293,-0.008330323,-0.07886489,-0.0005217994,0.02227227,-0.001420968,-0.009060168,-0.03288472,-0.02664135
236,2.36,40.68331,-75.28874,108.8555,20.9,273.5324,8,10,1422118168,-0.06828308,0.0227356,-0.9745636,23.51711,11.90685,-23.47467,280.7869,293.1469,25,0.01505592,0.001355815,-0.05517324,0.3877184,-0.007957331,-0.0789194,0.002751497,0.04456528,-0.005282417,-0.06245631,-0.0348159,-0.04182511
237,2.37,40.68331,-75.28874,108.8555,20.9,273.5324,8,10,1422118168,-0.04400635,0.02597046,-1.035446,23.51711,11.90685,-23.47467,280.7869,293.1469,25,0.01505592,0.001355815,-0.05517324,0.3877184,-0.007957331,-0.0789194,0.002751497,0.04456528,-0.005282417,-0.06245631,-0.0348159,-0.04182511
238,2.38,40.68331,-75.28874,108.8555,20.9,273.5324,8,10,1422118168,-0.04400635,0.02597046,-1.035446,23.51711,11.90685,-23.47467,280.7869,293.1469,25,0.01505592,0.001355815,-0.05517324,0.3877184,-0.007957331,-0.0789194,0.002751497,0.04456528,-0.005282417,-0.06245631,-0.0348159,-0.04182511
239,2.39,40.68331,-75.28874,108.8555,20.9,273.5324,8,10,1422118168,-0.04400635,0.02597046,-1.035446,23.51711,11.90685,-23.47467,280.7869,293.1469,25,0.01505592,0.001355815,-0.05517324,0.3877184,-0.007957331,-0.0789194,0.002751497,0.04456528,-0.005282417,-0.06245631,-0.0348159,-0.04182511
240,2.4,40.68331,-75.28874,108.8555,20.9,273.5324,8,10,1422118168,-0.0243988,0.02243042,-1.019638,23.37558,11.97763,-23.61111,280.7977,293.1577,25,-0.007994011,-0.005425125,-0.06390788,0.3876294,-0.008996355,-0.07585212,0.002823374,0.03841888,0.003373273,0.005247222,-0.02141234,0.01864493
241,2.41,40.68331,-75.28874,108.8555,20.9,273.5324,8,10,1422118168,-0.0243988,0.02243042,-1.019638,23.62326,12.08379,-23.57703,280.8086,293.1685,25,-0.007994011,-0.005425125,-0.06390788,0.3876294,-0.008996355,-0.07585212,0.002823374,0.03841888,0.003373273,0.005247222,-0.02141234,0.01864493
242,2.42,40.68331,-75.28874,108.8555,20.9,273.5324,8,10,1422118168,-0.005569458,0.01223755,-0.9591827,23.62326,12.08379,-23.57703,280.8086,293.1685,25,0.01665355,-0.01836409,-0.05497989,0.3874737,-0.009460778,-0.07310736,-0.01013209,0.01583211,-0.003903808,-0.01496344,-0.05061183,-0.02235385
243,2.43,40.68331,-75.28874,108.8555,20.9,273.5324,8,10,1422118168,-0.03132629,-0.06454468,-0.900177,23.5525,12.36691,-24.05444,280.8259,293.1859,25,0.001812281,-0.008860869,-0.05764998,0.3875154,-0.009394006,-0.07299078,0.01451548,0.002893099,0.005024044,0.003799397,-0.06068844,0.03811061
244,2.44,40.68331,-75.28874,108.8555,20.9,273.5324,8,10,1422118168,-0.001861572,0.03489685,-0.9615936,23.5525,12.36691,-24.05444,280.8259,293.1859,25,0.0188139,-0.0047098,-0.05140007,0.3875359,-0.009289901,-0.07292098,-0.0003257841,0.01239628,0.002353827,-0.02206122,-0.137401,0.09712241
245,2.45,40.68331,-75.28874,108.8555,20.9,273.5324,8,10,1422118168,0.008712769,0.09126282,-1.048279,23.48174,12.65001,-24.46371,280.8497,293.2097,25,0.0188139,-0.0047098,-0.05140007,0.3875359,-0.009289901,-0.07292098,-0.0003257841,0.01239628,0.002353827,-0.02206122,-0.137401,0.09712241
246,2.46,40.68331,-75.28874,108.8555,20.9,273.5324,8,10,1422118168,0.008712769,0.09126282,-1.048279,23.48174,12.65001,-24.46371,280.8497,293.2097,25,0.0188139,-0.0047098,-0.05140007,0.3875359,-0.009289901,-0.07292098,-0.0003257841,0.01239628,0.002353827,-0.02206122,-0.137401,0.09712241
247,2.47,40.68331,-75.28874,108.8555,20.9,273.5324,8,10,1422118168,0.008712769,0.09126282,-1.048279,23.51711,13.25161,-24.7706,280.8851,293.2451,25,-0.007848069,-0.0140551,-0.06137068,0.3875359,-0.009289901,-0.07292098,-0.0003257841,0.01239628,0.002353827,-0.02206122,-0.137401,0.09712241
248,2.48,40.68331,-75.28874,108.8555,20.9,273.5324,8,10,1422118168,-0.04862976,-0.02552795,-0.9343414,23.51711,13.25161,-24.7706,280.8851,293.2451,25,0.003615774,0.02453277,-0.05671042,0.3875708,-0.009157079,-0.07063098,0.005831216,0.01374567,-0.004978959,-0.006307774,-0.05136145,0.1072518
249,2.49,40.68331,-75.28874,108.8555,20.9,273.5324,8,10,1422118168,-0.02520752,0.01664734,-1.044189,23.7648,13.42855,-25.21396,280.9201,293.2801,25,0.008076834,-0.0185641,-0.0525937,0.3875788,-0.00872328,-0.07071289,0.001490537,0.04578636,0.003292358,-0.05233379,-0.05022246,-0.01424056
250,2.5,40.68331,-75.28874,108.8555,20.9,273.5324,8,10,1422118168,-0.03353882,0.01501465,-1.026688,23.7648,13.42855,-25.21396,280.9201,293.2801,25,-0.02296524,0.009036904,-0.0617097,0.3876729,-0.008626787,-0.07063061,0.005951602,0.002689445,0.007408942,-0.01660235,-0.05392456,-0.04671988
251,2.51,40.68331,-75.28874,108.8555,20.9,273.5324,8,10,1422118168,0.01228333,0.04994202,-0.9794922,23.58789,13.81783,-25.4527,280.9642,293.3242,25,0.006648581,-0.008708537,-0.0502384,0.3876729,-0.008626787,-0.07063061,0.005951602,0.002689445,0.007408942,-0.01660235,-0.05392456,-0.04671988
252,2.52,40.68331,-75.28874,108.8555,20.9,273.5324,8,10,1422118168,-0.02835083,-0.01396179,-1.017456,23.58789,13.81783,-25.4527,280.9642,293.3242,25,0.006648581,-0.008708537,-0.0502384,0.3876729,-0.008626787,-0.07063061,0.005951602,0.002689445,0.007408942,-0.01660235,-0.05392456,-0.04671988
253,2.53,40.68331,-75.28874,108.8555,20.9,273.5324,8,10,1422118168,-0.02835083,-0.01396179,-1.017456,23.58789,13.81783,-25.4527,280.9642,293.3242,25,-0.02159504,-0.002005094,-0.05299691,0.3876875,-0.009445489,-0.0682112,0.004541012,0.01253737,0.00976341,0.02170671,-0.0182163,0.01813783
254,2.54,40.68331,-75.28874,108.8555,20.9,273.5324,8,10,1422118168,-0.02835083,-0.01396179,-1.017456,23.58789,13.81783,-25.4527,280.9642,293.3242,25,-0.02159504,-0.002005094,-0.05299691,0.3876875,-0.009445489,-0.0682112,0.004541012,0.01253737,0.00976341,0.02170671,-0.0182163,0.01813783
255,2.55,40.68331,-75.28874,108.8555,20.9,273.5324,8,10,1422118168,-0.0214386,0.006134033,-1.007782,24.04786,13.78244,-25.28214,281.0403,293.4003,25,-0.03858068,-0.009827331,-0.05184136,0.3878655,-0.009105568,-0.06854597,-0.01502522,0.01083738,0.01329823,-0.005350756,-0.06853808,-0.03264789
256,2.56,40.68331,-75.28874,108.8555,20.9,273.5324,8,10,1422118168,0.001312256,-0.008255005,-0.9843597,24.04786,13.78244,-25.28214,281.0403,293.4003,25,-0.009500029,0.005696768,-0.05419293,0.3878816,-0.01003861,-0.06782241,-0.04067987,0.01141175,0.008159837,-0.02134145,-0.02591557,-0.01289315
257,2.57,40.68331,-75.28874,108.8555,20.9,273.5324,8,10,1422118168,-0.003463745,-0.008010864,-1.049728,24.15401,13.6055,-24.97519,281.0749,293.4349,25,-0.004362258,-0.005313539,-0.05896345,0.3879295,-0.009832345,-0.06801963,-0.01159921,0.02693581,0.005808136,-0.01162915,-0.06183316,-0.01014265
258,2.58,40.68331,-75.28874,108.8555,20.9,273.5324,8,10,1422118168,-0.02792358,0.05255127,-1.032608,24.15401,13.6055,-24.97519,281.0749,293.4349,25,-0.00672821,-0.009082179,-0.06017785,0.3879645,-0.009660441,-0.06821599,-0.006461434,0.01592545,0.001037485,0.01095008,-0.07641809,0.0132679
259,2.59,40.68331,-75.28874,108.8555,20.9,273.5324,8,10,1422118168,-0.03935242,0.06835938,-0.9820862,24.15401,13.6055,-24.97519,281.0749,293.4349,25,-0.004535364,0.003332414,-0.0578151,0.387943,-0.009508136,-0.06822555,-0.008827382,0.01215677,-0.0001770451,0.006022127,-0.0761835,-0.05209995
260,2.6,40.68331,-75.28874,108.8555,20.9,273.5324,8,10,1422118168,-0.08392334,0.008758545,-0.9218292,23.9771,14.06554,-24.32724,281.1205,293.4805,25,-0.002232262,0.01324097,-0.06402905,0.387922,-0.01008836,-0.06753726,-0.006629258,0.02456603,0.00218532,-0.02928722,0.0008734404,0.01558327
261,2.61,40.68331,-75.28874,108.8555,20.9,273.5324,8,10,1422118168,-0.08392334,0.008758545,-0.9218292,23.9771,14.06554,-24.32724,281.1205,293.4805,25,-0.002232262,0.01324097,-0.06402905,0.387922,-0.01008836,-0.06753726,-0.006629258,0.02456603,0.00218532,-0.02928722,0.0008734404,0.01558327
262,2.62,40.68331,-75.28874,108.8555,20.9,273.5324,8,10,1422118168,-0.08392334,0.008758545,-0.9218292,23.9771,14.06554,-24.32724,281.1205,293.4805,25,-0.002232262,0.01324097,-0.06402905,0.387922,-0.01008836,-0.06753726,-0.006629258,0.02456603,0.00218532,-0.02928722,0.0008734404,0.01558327
263,2.63,40.68331,-75.28874,108.8555,20.9,273.5324,8,10,1422118168,0.01991272,0.06710815,-0.9472961,24.22478,14.31326,-24.36136,281.1692,293.5292,25,-0.009429721,0.001993642,-0.05415858,0.3879351,-0.008975562,-0.06606688,0.005886649,0.01005695,0.002423269,0.008406544,-0.02398086,-0.05152296
264,2.64,40.68331,-75.28874,108.8555,20.9,273.5324,8,10,1422118168,0.008392334,0.05722046,-0.914444,24.11863,14.4902,-24.32727,281.2219,293.5819,25,0.02713122,0.01151045,-0.06007772,0.3879927,-0.008798762,-0.06612433,-0.01151551,0.0232297,0.005841041,0.02869214,0.001031996,0.05047981
265,2.65,40.68331,-75.28874,108.8555,20.9,273.5324,8,10,1422118168,-0.02436829,-0.001571655,-0.9823761,24.11863,14.4902,-24.32727,281.2219,293.5819,25,0.02713122,0.01151045,-0.06007772,0.3879927,-0.008798762,-0.06612433,-0.01151551,0.0232297,0.005841041,0.02869214,0.001031996,0.05047981
266,2.66,40.68331,-75.28874,108.8555,20.9,273.5324,8,10,1422118168,-0.06144714,0.0335083,-1.022324,24.75552,14.63175,-24.46371,281.2701,293.6301,25,0.02060514,0.03357341,-0.06156296,0.3879929,-0.008371314,-0.06588754,0.02504544,0.03274646,-7.823315E-005,0.01674539,-0.008619422,0.08335127
267,2.67,40.68331,-75.28874,108.8555,20.9,273.5324,8,10,1422118168,-0.04606628,0.07141113,-1.030563,24.75552,14.63175,-24.46371,281.2701,293.6301,25,0.009685917,0.02837039,-0.06037972,0.3879784,-0.007885696,-0.0656914,0.01851936,0.0548094,-0.001563542,-0.01649968,-0.06721582,0.01543597
268,2.68,40.68331,-75.28874,108.8555,20.9,273.5324,8,10,1422118168,-0.0478363,0.03645325,-1.068115,24.79089,14.95024,-24.36142,281.3234,293.6834,25,0.006154831,0.01965546,-0.05664437,0.3879784,-0.007885696,-0.0656914,0.01851936,0.0548094,-0.001563542,-0.01649968,-0.06721582,0.01543597
269,2.69,40.68331,-75.28874,108.8555,20.9,273.5324,8,10,1422118168,-0.0478363,0.03645325,-1.068115,24.79089,14.95024,-24.36142,281.3234,293.6834,25,0.006154831,0.01965546,-0.05664437,0.3878225,-0.009631017,-0.06404371,0.007609785,0.04959126,-0.0003807388,-0.05183602,-0.03049163,-0.02441999
270,2.7,40.68331,-75.28874,108.8555,20.9,273.5324,8,10,1422118168,-0.0478363,0.03645325,-1.068115,24.79089,14.95024,-24.36142,281.3234,293.6834,25,0.006154831,0.01965546,-0.05664437,0.3878225,-0.009631017,-0.06404371,0.007609785,0.04959126,-0.0003807388,-0.05183602,-0.03049163,-0.02441999
271,2.71,40.68331,-75.28874,108.8555,20.9,273.5324,8,10,1422118168,-0.0478363,0.03645325,-1.068115,24.79089,14.95024,-24.36142,281.3234,293.6834,25,0.006154831,0.01965546,-0.05664437,0.3878225,-0.009631017,-0.06404371,0.007609785,0.04959126,-0.0003807388,-0.05183602,-0.03049163,-0.02441999
272,2.72,40.68331,-75.28874,108.8555,20.9,273.5324,8,10,1422118168,-0.01765442,0.1105957,-1.071289,25.07396,14.59636,-24.22504,281.4176,293.7776,25,-0.006964166,0.005703692,-0.06645785,0.3878875,-0.007946342,-0.05885285,0.02146877,0.03139123,-0.003785086,0.006879644,-0.03435905,-0.02660416
273,2.73,40.68331,-75.28874,108.8555,20.9,273.5324,8,10,1422118168,-0.01841736,0.06382751,-1.005463,25.07396,14.59636,-24.22504,281.4176,293.7776,25,0.005316202,-0.0001299623,-0.05769978,0.3878875,-0.007946342,-0.05885285,0.02146877,0.03139123,-0.003785086,0.006879644,-0.03435905,-0.02660416
274,2.74,40.68331,-75.28874,108.8555,20.9,273.5324,8,10,1422118168,-0.01493835,-0.01927185,-0.9511719,25.21548,14.52558,-24.02039,281.4582,293.8182,25,-0.004142281,-0.01642824,-0.0600889,0.3878212,-0.007377053,-0.05892861,0.003271136,0.02109137,0.002297051,-0.01105318,0.004933008,-0.007225598
275,2.75,40.68331,-75.28874,108.8555,20.9,273.5324,8,10,1422118168,0.01106262,-0.08158875,-0.9700623,25.21548,14.52558,-24.02039,281.4582,293.8182,25,0.01172883,-0.01480265,-0.0599688,0.3878067,-0.007675491,-0.05563326,-0.006164835,0.004790656,-9.305107E-005,-0.007274814,-0.07487642,0.04725158
276,2.76,40.68331,-75.28874,108.8555,20.9,273.5324,8,10,1422118168,0.02285767,0.02209473,-1.014023,24.82627,14.20709,-23.50885,281.4957,293.8557,25,-0.009218798,-0.009115734,-0.05405551,0.3878161,-0.00763171,-0.05548893,0.009620767,0.006369723,9.058123E-005,0.01868251,-0.1370492,0.02836955
277,2.77,40.68331,-75.28874,108.8555,20.9,273.5324,8,10,1422118168,0.02285767,0.02209473,-1.014023,24.82627,14.20709,-23.50885,281.4957,293.8557,25,-0.009218798,-0.009115734,-0.05405551,0.3878161,-0.00763171,-0.05548893,0.009620767,0.006369723,9.058123E-005,0.01868251,-0.1370492,0.02836955
278,2.78,40.68331,-75.28874,108.8555,20.9,273.5324,8,10,1422118168,0.02285767,0.02209473,-1.014023,24.82627,14.20709,-23.50885,281.4957,293.8557,25,-0.009218798,-0.009115734,-0.05405551,0.3878161,-0.00763171,-0.05548893,0.009620767,0.006369723,9.058123E-005,0.01868251,-0.1370492,0.02836955
279,2.79,40.68331,-75.28874,108.8555,20.9,273.5324,8,10,1422118168,-0.02482605,-0.01914978,-0.9977264,24.82627,13.85321,-23.7135,281.5258,293.8857,25,-0.007866179,-0.01404445,-0.05891365,0.3878928,-0.007377579,-0.05564154,-0.003945636,0.0122105,-7.819077E-005,0.01687232,-0.01191166,-0.07832647
280,2.8,40.68331,-75.28874,108.8555,20.9,273.5324,8,10,1422118168,-0.06494141,0.02410889,-0.9346313,25.00319,13.53471,-24.08862,281.548,293.908,25,0.00992933,0.01602131,-0.06149372,0.3879102,-0.00745643,-0.05491454,-0.009969568,0.007126827,0.001145244,-0.004533028,-0.01468004,-0.07056595
281,2.81,40.68331,-75.28874,108.8555,20.9,273.5324,8,10,1422118168,-0.04670715,0.03237915,-1.070114,25.00319,13.53471,-24.08862,281.548,293.908,25,0.007893077,-0.007470699,-0.05638232,0.3878818,-0.007163936,-0.05490027,0.007825946,0.03719254,-0.001434955,-0.01767297,-0.07402248,0.0007412959
282,2.82,40.68331,-75.28874,108.8555,20.9,273.5324,8,10,1422118168,-0.0513916,0.0362854,-1.138443,24.79089,13.18085,-24.77066,281.5643,293.9243,25,-0.01282179,-0.01168542,-0.05652,0.3878949,-0.006920847,-0.05481936,0.005789699,0.01370046,0.003676253,-0.03979676,-0.02241276,-0.07164025
283,2.83,40.68331,-75.28874,108.8555,20.9,273.5324,8,10,1422118168,-0.006881714,0.04919434,-1.031754,24.79089,13.18085,-24.77066,281.5643,293.9243,25,0.005152151,0.008510664,-0.05777994,0.3879411,-0.006818638,-0.05483559,-0.01492516,0.009485695,0.00353844,-0.04458326,-0.01852271,-0.1399693
284,2.84,40.68331,-75.28874,108.8555,20.9,273.5324,8,10,1422118168,-0.006271362,0.001144409,-1.015625,24.93242,12.26074,-24.77066,281.5607,293.9207,25,0.01239808,0.01484712,-0.06146203,0.3879411,-0.006818638,-0.05483559,-0.01492516,0.009485695,0.00353844,-0.04458326,-0.01852271,-0.1399693
285,2.85,40.68331,-75.28874,108.8555,20.9,273.5324,8,10,1422118168,-0.02137756,-0.01184082,-1.103195,24.93242,12.26074,-24.77066,281.5607,293.9207,25,0.01239808,0.01484712,-0.06146203,0.3879411,-0.006818638,-0.05483559,-0.01492516,0.009485695,0.00353844,-0.04458326,-0.01852271,-0.1399693
286,2.86,40.68331,-75.28874,108.8555,20.9,273.5324,8,10,1422118168,-0.02137756,-0.01184082,-1.103195,24.93242,12.26074,-24.77066,281.5607,293.9207,25,0.01239808,0.01484712,-0.06146203,0.3879411,-0.006818638,-0.05483559,-0.01492516,0.009485695,0.00353844,-0.04458326,-0.01852271,-0.1399693
287,2.87,40.68331,-75.28874,108.8555,20.9,273.5324,8,10,1422118168,-0.02137756,-0.01184082,-1.103195,24.93242,12.26074,-24.77066,281.5607,293.9207,25,0.01239808,0.01484712,-0.06146203,0.3879411,-0.006818638,-0.05483559,-0.01492516,0.009485695,0.00353844,-0.04458326,-0.01852271,-0.1399693
288,2.88,40.68331,-75.28874,108.8555,20.9,273.5324,8,10,1422118168,-0.0227356,0.05070496,-1.010376,25.7816,10.70367,-24.90707,281.4958,293.8558,25,0.03205434,0.01039112,-0.0612543,0.3878395,-0.006215564,-0.05544659,0.009045882,0.03598984,0.001043333,-0.03543526,0.04071219,-0.02925076
289,2.89,40.68331,-75.28874,108.8555,20.9,273.5324,8,10,1422118168,-0.02719116,-0.04016113,-1.010223,25.7816,10.70367,-24.90707,281.4958,293.8558,25,0.02830168,0.01523301,-0.06255899,0.3878411,-0.005902002,-0.05518806,0.02994291,0.03155323,-0.001195984,-0.01684261,-0.004455097,-0.01191584
290,2.9,40.68331,-75.28874,108.8555,20.9,273.5324,8,10,1422118168,-0.01956177,0.00100708,-0.9868164,25.92313,10.13745,-24.77066,281.4427,293.8027,25,0.005015265,0.01713531,-0.06154565,0.3877955,-0.005558145,-0.0549428,0.02619026,0.03639508,-0.002500796,-0.02164143,-0.09507629,-0.01174779
291,2.91,40.68331,-75.28874,108.8555,20.9,273.5324,8,10,1422118168,-0.02580261,0.04180908,-0.9697418,25.92313,10.13745,-24.77066,281.4427,293.8027,25,0.005015265,0.01713531,-0.06154565,0.3877955,-0.005558145,-0.0549428,0.02619026,0.03639508,-0.002500796,-0.02164143,-0.09507629,-0.01174779
292,2.92,40.68331,-75.28874,108.8555,20.9,273.5324,8,10,1422118168,-0.008483887,-0.01049805,-0.9727783,26.34772,9.995895,-24.22504,281.3848,293.7448,25,0.01769777,-0.008464325,-0.0562899,0.3877802,-0.00515654,-0.05487128,0.002903847,0.03829733,-0.001487592,-0.01441301,-0.05383667,0.01166527
293,2.93,40.68331,-75.28874,108.8555,20.9,273.5324,8,10,1422118168,-0.008483887,-0.01049805,-0.9727783,26.34772,9.995895,-24.22504,281.3848,293.7448,25,0.01176132,-0.01604235,-0.06118586,0.3877802,-0.00515654,-0.05487128,0.002903847,0.03829733,-0.001487592,-0.01441301,-0.05383667,0.01166527
294,2.94,40.68331,-75.28874,108.8555,20.9,273.5324,8,10,1422118168,-0.008483887,-0.01049805,-0.9727783,26.34772,9.995895,-24.22504,281.3848,293.7448,25,0.01176132,-0.01604235,-0.06118586,0.3877802,-0.00515654,-0.05487128,0.002903847,0.03829733,-0.001487592,-0.01441301,-0.05383667,0.01166527
295,2.95,40.68331,-75.28874,108.8555,20.9,273.5324,8,10,1422118168,0.02534485,0.01811218,-0.9272766,26.41849,10.279,-24.08862,281.3333,293.6933,25,0.01074053,-0.02717649,-0.0598644,0.3877531,-0.005788235,-0.05423959,0.009652928,0.005114214,-0.00112814,0.0175137,-0.09315343,0.07479136
296,2.96,40.68331,-75.28874,108.8555,20.9,273.5324,8,10,1422118168,0.01255798,0.03599548,-0.9840851,26.2062,10.49133,-24.36145,281.2894,293.6494,25,0.004795021,-0.03474919,-0.06353184,0.387749,-0.00575863,-0.05408819,0.02068028,0.004150636,-0.001025739,0.04495,-0.05885309,0.1320049
297,2.97,40.68331,-75.28874,108.8555,20.9,273.5324,8,10,1422118168,-0.003173828,0.02006531,-0.9347382,26.2062,10.49133,-24.36145,281.2894,293.6494,25,-0.03820198,-0.02835894,-0.05535514,0.3877815,-0.005186344,-0.05333484,0.002691043,-0.01358816,-0.003474812,0.01773693,-0.01731408,0.01447952
298,2.98,40.68331,-75.28874,108.8555,20.9,273.5324,8,10,1422118168,-0.03121948,-0.0006561279,-0.9243469,26.06466,10.49133,-24.5661,281.2471,293.6071,25,-0.04451713,-0.01740536,-0.05673731,0.3877938,-0.005352365,-0.05356415,-0.04030595,-0.00719795,0.004701761,0.002170835,-0.03347324,0.06381332
299,2.99,40.68331,-75.28874,108.8555,20.9,273.5324,8,10,1422118168,-0.026474,-0.06098938,-0.9124451,26.06466,10.49133,-24.5661,281.2471,293.6071,25,0.005995841,-0.03592684,-0.05736769,0.3878314,-0.005313865,-0.05424158,-0.04662111,0.003755608,0.003319516,-0.02591346,-0.05487112,0.07416826
300,3,40.68331,-75.28874,108.8555,20.9,273.5324,8,10,1422118168,0.02836609,0.04377747,-1.080338,26.13543,10.63287,-24.63431,281.2078,293.5678,25,-0.003637346,-0.04113705,-0.06477394,0.3878676,-0.005403665,-0.05414796,0.003891874,-0.01476592,0.002689015,-0.02107828,-0.1151109,0.08607471
301,3.01,40.68331,-75.28874,108.8555,20.9,273.5324,8,10,1422118168,0.02836609,0.04377747,-1.080338,26.13543,10.63287,-24.63431,281.2078,293.5678,25,-0.003637346,-0.04113705,-0.06477394,0.3878676,-0.005403665,-0.05414796,0.003891874,-0.01476592,0.002689015,-0.02107828,-0.1151109,0.08607471
302,3.02,40.68331,-75.28874,108.8555,20.9,273.5324,8,10,1422118168,0.02836609,0.04377747,-1.080338,26.13543,10.63287,-24.63431,281.2078,293.5678,25,-0.003637346,-0.04113705,-0.06477394,0.3878676,-0.005403665,-0.05414796,0.003891874,-0.01476592,0.002689015,-0.02107828,-0.1151109,0.08607471
303,3.03,40.68331,-75.28874,108.8555,20.9,273.5324,8,10,1422118168,0.02836609,0.04377747,-1.080338,26.13543,10.63287,-24.63431,281.2078,293.5678,25,-0.003637346,-0.04113705,-0.06477394,0.3878676,-0.005403665,-0.05414796,0.003891874,-0.01476592,0.002689015,-0.02107828,-0.1151109,0.08607471
304,3.04,40.68331,-75.28874,108.8555,20.9,273.5324,8,10,1422118168,-0.04141235,-0.07368469,-1.021866,26.63078,10.42056,-25.72556,281.117,293.477,25,-0.05864627,-0.04493871,-0.06029237,0.387869,-0.005888402,-0.05070375,-0.07281448,-0.03392129,0.007124154,-0.01879266,-0.03247829,-0.1675165
305,3.05,40.68332,-75.289,110.0222,20.88,270.7072,8,10,1422118169,-0.006774902,-0.01721191,-1.058075,26.63078,10.42056,-25.72556,281.117,293.477,25,-0.006310094,-0.03251933,-0.05627472,0.3878757,-0.006125341,-0.05135538,-0.06072106,-0.02377735,-0.000237485,-0.03529513,-0.1250175,-0.02320298
306,3.06,40.68332,-75.289,110.0222,20.88,270.7072,8,10,1422118169,-0.006774902,-0.01721191,-1.058075,26.77231,10.63287,-26.06659,281.0742,293.4341,25,-0.006310094,-0.03251933,-0.05627472,0.3878757,-0.006125341,-0.05135538,-0.06072106,-0.02377735,-0.000237485,-0.03529513,-0.1250175,-0.02320298
307,3.07,40.68332,-75.289,110.0222,20.88,270.7072,8,10,1422118169,0.003723145,0.03450012,-1.178802,26.77231,10.63287,-26.06659,281.0742,293.4341,25,-0.02812298,-0.04049922,-0.06375927,0.3879236,-0.005914006,-0.04855731,-0.03789444,-0.002203824,0.003444617,0.00604433,-0.08099367,0.0709169
308,3.08,40.68332,-75.289,110.0222,20.88,270.7072,8,10,1422118169,0.008590698,0.09594727,-1.073944,27.05537,10.63287,-26.54398,281.031,293.391,25,-0.06617875,-0.03523895,-0.05921619,0.3879411,-0.006199237,-0.04899577,-0.03017605,-0.01933656,-0.003705701,0.009914903,-0.01447605,-0.1800217
309,3.09,40.68332,-75.289,110.0222,20.88,270.7072,8,10,1422118169,-0.03567505,0.01062012,-0.8991241,27.05537,10.63287,-26.54398,281.031,293.391,25,-0.06617875,-0.03523895,-0.05921619,0.3879411,-0.006199237,-0.04899577,-0.03017605,-0.01933656,-0.003705701,0.009914903,-0.01447605,-0.1800217
310,3.1,40.68332,-75.289,110.0222,20.88,270.7072,8,10,1422118169,0.01583862,-0.05474854,-0.8644867,26.98461,10.20822,-27.02139,280.9796,293.3396,25,0.01864479,-0.05174202,-0.07308833,0.387914,-0.006675291,-0.05029803,-0.02996513,-0.03044601,-0.003602832,-0.02900825,-0.03965671,0.09958892
311,3.11,40.68332,-75.289,110.0222,20.88,270.7072,8,10,1422118169,0.01583862,-0.05474854,-0.8644867,26.98461,10.20822,-27.02139,280.9796,293.3396,25,0.02840581,-0.05515114,-0.06068785,0.3877925,-0.007014832,-0.05021033,0.01659173,-0.03057948,-0.01303508,-0.01698088,-0.1421997,0.1829955
312,3.12,40.68332,-75.289,110.0222,20.88,270.7072,8,10,1422118169,0.01847839,0.146347,-0.9807587,26.70155,10.42056,-26.74857,280.9337,293.2936,25,0.01378825,-0.05554422,-0.06818039,0.3877607,-0.007378343,-0.04993782,0.02635275,-0.03398864,-0.0006347286,0.0232077,-0.1046656,0.1342395
313,3.13,40.68332,-75.289,110.0222,20.88,270.7072,8,10,1422118169,0.05348206,0.09262085,-0.94133,26.70155,10.42056,-26.74857,280.9337,293.2936,25,0.01989408,-0.05783054,-0.06073578,0.3876807,-0.007747227,-0.04977716,0.0117352,-0.03438177,-0.008127393,0.02194349,0.02916185,0.04905489
314,3.14,40.68332,-75.289,110.0222,20.88,270.7072,8,10,1422118169,0.02650452,-0.03269958,-0.8689575,26.45387,10.31439,-26.98727,280.8877,293.2477,25,0.02876267,-0.07489049,-0.05804759,0.3877012,-0.00707741,-0.05355756,0.01781553,-0.03666141,-0.0006824017,0.06054926,0.03908889,0.05721117
315,3.15,40.68332,-75.289,110.0222,20.88,270.7072,8,10,1422118169,0.01173401,-0.0007324219,-0.816925,26.45387,10.31439,-26.98727,280.8877,293.2477,25,0.02610484,-0.06139918,-0.06433638,0.3877255,-0.007670904,-0.05324857,0.02668413,-0.05372139,0.002005664,0.03416447,-0.08592299,0.1295957
316,3.16,40.68332,-75.289,110.0222,20.88,270.7072,8,10,1422118169,0.03227234,0.05656433,-0.944931,26.45387,10.31439,-26.98727,280.8877,293.2477,25,0.0470269,-0.06951223,-0.06039863,0.3877255,-0.007670904,-0.05324857,0.02668413,-0.05372139,0.002005664,0.03416447,-0.08592299,0.1295957
317,3.17,40.68332,-75.289,110.0222,20.88,270.7072,8,10,1422118169,0.03227234,0.05656433,-0.944931,26.31234,10.10206,-27.32834,280.8379,293.1979,25,0.0470269,-0.06951223,-0.06039863,0.3877255,-0.007670904,-0.05324857,0.02668413,-0.05372139,0.002005664,0.03416447,-0.08592299,0.1295957
318,3.18,40.68332,-75.289,110.0222,20.88,270.7072,8,10,1422118169,0.03227234,0.05656433,-0.944931,26.31234,10.10206,-27.32834,280.8379,293.1979,25,0.0470269,-0.06951223,-0.06039863,0.3877255,-0.007670904,-0.05324857,0.02668413,-0.05372139,0.002005664,0.03416447,-0.08592299,0.1295957
319,3.19,40.68332,-75.289,110.0222,20.88,270.7072,8,10,1422118169,-0.03990173,-0.001159668,-1.101151,26.10004,10.17283,-26.85092,280.7921,293.1521,25,0.01118954,-0.04941123,-0.06334382,0.3876939,-0.008613042,-0.05254799,0.04494837,-0.04834323,-0.0003456346,0.04087339,0.004040521,0.0536516
320,3.2,40.68332,-75.289,110.0222,20.88,270.7072,8,10,1422118169,-0.07804871,-0.04788208,-1.073868,26.10004,10.17283,-26.85092,280.7921,293.1521,25,0.01392514,-0.06416886,-0.06441467,0.3874816,-0.009373261,-0.05219263,0.009111012,-0.02824232,-0.003291083,-0.007698966,0.02134791,-0.1272906
321,3.21,40.68332,-75.289,110.0222,20.88,270.7072,8,10,1422118169,0.008148193,-0.0304718,-0.9788513,26.06465,10.49133,-26.47577,280.7542,293.1142,25,0.0210427,-0.05531572,-0.05706302,0.387416,-0.009835206,-0.05203717,0.01184661,-0.04299998,-0.004362005,-0.03008,-0.05317335,-0.1025524
322,3.22,40.68332,-75.289,110.0222,20.88,270.7072,8,10,1422118169,0.01029968,0.05023193,-1.088196,26.06465,10.49133,-26.47577,280.7542,293.1142,25,0.0383117,-0.05864547,-0.06794363,0.3873018,-0.01277838,-0.04804075,0.01898976,-0.03416314,0.002989167,-0.06528542,-0.09590436,-0.07510308
323,3.23,40.68332,-75.289,110.0222,20.88,270.7072,8,10,1422118169,0.02026367,0.08363342,-1.229599,25.95851,10.59749,-26.30527,280.72,293.08,25,0.03832608,-0.05987452,-0.06670366,0.3872485,-0.01317274,-0.04761461,0.03625877,-0.03749293,-0.007891575,0.02130562,-0.07806842,0.01992866
324,3.24,40.68332,-75.289,110.0222,20.88,270.7072,8,10,1422118169,-0.01506042,0.05705261,-1.138184,25.95851,10.59749,-26.30527,280.72,293.08,25,0.01003559,-0.05070233,-0.06948507,0.3871804,-0.01355627,-0.04726125,0.03627316,-0.03872203,-0.006651734,0.02384041,0.002988274,-0.08940419
325,3.25,40.68332,-75.289,110.0222,20.88,270.7072,8,10,1422118169,-0.01506042,0.05705261,-1.138184,26.13542,11.26987,-26.1348,280.6994,293.0594,25,0.01003559,-0.05070233,-0.06948507,0.3871804,-0.01355627,-0.04726125,0.03627316,-0.03872203,-0.006651734,0.02384041,0.002988274,-0.08940419
326,3.26,40.68332,-75.289,110.0222,20.88,270.7072,8,10,1422118169,-0.01506042,0.05705261,-1.138184,26.13542,11.26987,-26.1348,280.6994,293.0594,25,0.01003559,-0.05070233,-0.06948507,0.3871804,-0.01355627,-0.04726125,0.03627316,-0.03872203,-0.006651734,0.02384041,0.002988274,-0.08940419
327,3.27,40.68332,-75.289,110.0222,20.88,270.7072,8,10,1422118169,-0.03820801,-0.02238464,-0.936203,26.1708,11.44681,-25.69144,280.6829,293.0429,25,0.05395005,-0.04711824,-0.06177256,0.3869927,-0.01417017,-0.04702019,0.01636817,-0.02069334,-0.008214268,-0.0272278,-0.05464752,-0.03680428
328,3.28,40.68332,-75.289,110.0222,20.88,270.7072,8,10,1422118169,0.0280304,0.03819275,-0.982666,26.1708,11.44681,-25.69144,280.6829,293.0429,25,0.05400757,-0.05203444,-0.05681268,0.3868639,-0.01680604,-0.04173147,0.02153235,-0.03415502,-0.005591718,-0.05047012,-0.1191272,0.03405297
329,3.29,40.68332,-75.289,110.0222,20.88,270.7072,8,10,1422118169,0.0005187988,0.1026154,-1.07962,26.13542,11.97764,-25.52094,280.6776,293.0376,25,0.01215813,-0.03458461,-0.06715667,0.3868645,-0.0173701,-0.04065942,0.05198853,-0.03089673,0.003237735,0.04538527,-0.002455473,0.01635677
330,3.3,40.68332,-75.289,110.0222,20.88,270.7072,8,10,1422118169,0.002243042,0.1120148,-1.059143,26.13542,11.97764,-25.52094,280.6776,293.0376,25,0.01215813,-0.03458461,-0.06715667,0.3868645,-0.0173701,-0.04065942,0.05198853,-0.03089673,0.003237735,0.04538527,-0.002455473,0.01635677
331,3.31,40.68332,-75.289,110.0222,20.88,270.7072,8,10,1422118169,-0.0226593,-0.009460449,-1.043564,26.13542,12.04842,-25.31638,280.6752,293.0352,25,0.05402409,-0.04960297,-0.0654352,0.3868199,-0.01761496,-0.0404345,0.01013909,-0.01344695,-0.007106379,0.01811845,0.06219187,-0.08059274
332,3.32,40.68332,-75.289,110.0222,20.88,270.7072,8,10,1422118169,-0.08831787,-0.05873108,-0.9670105,26.13542,12.04842,-25.31638,280.6752,293.0352,25,0.021072,-0.05167118,-0.07061105,0.386779,-0.01703565,-0.04254516,0.05198783,-0.02846014,-0.005384434,0.01926245,0.06948245,-0.06019295
333,3.33,40.68332,-75.289,110.0222,20.88,270.7072,8,10,1422118169,-0.08831787,-0.05873108,-0.9670105,25.95851,12.15458,-25.35043,280.6767,293.0367,25,0.04603727,-0.01644475,-0.06334808,0.386779,-0.01703565,-0.04254516,0.05198783,-0.02846014,-0.005384434,0.01926245,0.06948245,-0.06019295
334,3.34,40.68332,-75.289,110.0222,20.88,270.7072,8,10,1422118169,-0.08831787,-0.05873108,-0.9670105,25.95851,12.15458,-25.35043,280.6767,293.0367,25,0.04603727,-0.01644475,-0.06334808,0.386779,-0.01703565,-0.04254516,0.05198783,-0.02846014,-0.005384434,0.01926245,0.06948245,-0.06019295
335,3.35,40.68332,-75.289,110.0222,20.88,270.7072,8,10,1422118169,-0.02380371,0.04096985,-0.9156647,25.64006,11.55299,-25.38452,280.669,293.029,25,0.04603727,-0.01644475,-0.06334808,0.3867054,-0.01741936,-0.04219781,0.01903575,-0.0305284,-0.01056041,-0.005256332,-0.05164574,-0.04460562
336,3.36,40.68332,-75.289,110.0222,20.88,270.7072,8,10,1422118169,0.02027893,0.01589966,-1.022949,25.64006,11.55299,-25.38452,280.669,293.029,25,0.009728794,-0.03831596,-0.05977146,0.3866337,-0.01773741,-0.04129445,0.006388945,-0.01105286,-0.004702718,0.005956839,-0.02977759,-0.1590907
337,3.37,40.68332,-75.289,110.0222,20.88,270.7072,8,10,1422118169,-0.0435791,-0.05081177,-1.00029,25.42777,11.55299,-25.11166,280.6646,293.0246,25,-0.005272793,-0.01895372,-0.0662187,0.3866863,-0.01631424,-0.04024658,0.007699361,-0.01716372,0.0002778796,0.03657924,-0.02433606,-0.02389197
338,3.38,40.68332,-75.289,110.0222,20.88,270.7072,8,10,1422118169,-0.05488586,-0.0761261,-1.01796,25.42777,11.55299,-25.11166,280.6646,293.0246,25,0.02533146,-0.0206648,-0.06471428,0.3866863,-0.01631424,-0.04024658,0.007699361,-0.01716372,0.0002778796,0.03657924,-0.02433606,-0.02389197
339,3.39,40.68332,-75.289,110.0222,20.88,270.7072,8,10,1422118169,-0.06539917,-0.005752563,-1.067978,25.25085,11.23449,-24.87296,280.6556,293.0156,25,-0.01756595,-0.01433313,-0.07005126,0.3866384,-0.01640674,-0.04035601,-0.007302221,0.002198481,-0.006169498,-0.02718646,-0.09115683,-0.001238588
340,3.4,40.68332,-75.289,110.0222,20.88,270.7072,8,10,1422118169,-0.08534241,0.05107117,-1.082611,25.25085,11.23449,-24.87296,280.6556,293.0156,25,-0.009173525,-0.009142365,-0.06019809,0.3865131,-0.01637326,-0.04033978,-0.01959536,0.006818974,-0.01000231,-0.04903996,-0.0460814,-0.06892537
341,3.41,40.68332,-75.289,110.0222,20.88,270.7072,8,10,1422118169,-0.08534241,0.05107117,-1.082611,25.25085,11.23449,-24.87296,280.6556,293.0156,25,-0.009173525,-0.009142365,-0.06019809,0.3865131,-0.01637326,-0.04033978,-0.01959536,0.006818974,-0.01000231,-0.04903996,-0.0460814,-0.06892537
342,3.42,40.68332,-75.289,110.0222,20.88,270.7072,8,10,1422118169,-0.08534241,0.05107117,-1.082611,25.25085,11.23449,-24.87296,280.6556,293.0156,25,-0.009173525,-0.009142365,-0.06019809,0.3865131,-0.01637326,-0.04033978,-0.01959536,0.006818974,-0.01000231,-0.04903996,-0.0460814,-0.06892537
343,3.43,40.68332,-75.289,110.0222,20.88,270.7072,8,10,1422118169,0.00730896,-0.03027344,-0.9725647,25.18009,11.16371,-24.60013,280.646,293.006,25,-0.01963469,-0.03658544,-0.06372279,0.3863732,-0.01872966,-0.04173353,-0.03301955,0.000353204,0.002229235,-0.02245595,-0.09938438,-0.03603436
344,3.44,40.68332,-75.289,110.0222,20.88,270.7072,8,10,1422118169,-0.03688049,-0.03710938,-0.9550171,25.32162,10.80982,-24.39551,280.6286,292.9886,25,-0.01963469,-0.03658544,-0.06372279,0.3863732,-0.01872966,-0.04173353,-0.03301955,0.000353204,0.002229235,-0.02245595,-0.09938438,-0.03603436
345,3.45,40.68332,-75.289,110.0222,20.88,270.7072,8,10,1422118169,-0.02642822,0.03497314,-0.9181213,25.10932,10.5975,-23.98627,280.6087,292.9687,25,-0.04341485,-0.006319148,-0.06911542,0.3863644,-0.01887506,-0.04188262,-0.0216657,-0.01544951,-0.003673529,0.02616635,-0.07214381,0.02638038
346,3.46,40.68332,-75.289,110.0222,20.88,270.7072,8,10,1422118169,-0.02078247,0.0463562,-0.9947968,25.10932,10.5975,-23.98627,280.6087,292.9687,25,-0.02107572,-0.02794295,-0.05644197,0.3862246,-0.01959598,-0.03937747,-0.04542448,0.01481145,-0.009067094,-0.01730096,-0.07647666,0.04401587
347,3.47,40.68332,-75.289,110.0222,20.88,270.7072,8,10,1422118169,-0.07098389,-0.01791382,-1.054077,25.35699,10.20823,-23.8158,280.5803,292.9403,25,-0.06141596,-0.02649925,-0.06416993,0.3862261,-0.01959518,-0.03958239,-0.02308534,-0.006812424,0.003606163,-0.001203897,0.006784145,0.004228137
348,3.48,40.68332,-75.289,110.0222,20.88,270.7072,8,10,1422118169,-0.005020142,0.01011658,-0.931366,25.35699,10.20823,-23.8158,280.5803,292.9403,25,-0.00900042,-0.01778832,-0.06134645,0.3861914,-0.01967175,-0.04014942,-0.06342557,-0.005368769,-0.004121925,-0.05132926,-0.05805245,-0.05507635
349,3.49,40.68332,-75.289,110.0222,20.88,270.7072,8,10,1422118169,-0.005020142,0.01011658,-0.931366,25.35699,10.20823,-23.8158,280.5803,292.9403,25,-0.00900042,-0.01778832,-0.06134645,0.3861914,-0.01967175,-0.04014942,-0.06342557,-0.005368769,-0.004121925,-0.05132926,-0.05805245,-0.05507635
350,3.5,40.68332,-75.289,110.0222,20.88,270.7072,8,10,1422118169,-0.005020142,0.01011658,-0.931366,25.35699,10.20823,-23.8158,280.5803,292.9403,25,-0.00900042,-0.01778832,-0.06134645,0.3861914,-0.01967175,-0.04014942,-0.06342557,-0.005368769,-0.004121925,-0.05132926,-0.05805245,-0.05507635
351,3.51,40.68332,-75.289,110.0222,20.88,270.7072,8,10,1422118169,-0.005020142,0.01011658,-0.931366,25.35699,10.20823,-23.8158,280.5803,292.9403,25,-0.00900042,-0.01778832,-0.06134645,0.3861914,-0.01967175,-0.04014942,-0.06342557,-0.005368769,-0.004121925,-0.05132926,-0.05805245,-0.05507635
352,3.52,40.68332,-75.289,110.0222,20.88,270.7072,8,10,1422118169,-0.01733398,0.02435303,-1.020416,25.25084,9.606636,-24.25912,280.5053,292.8653,25,-0.04314641,-0.02234472,-0.06405248,0.3862289,-0.01920159,-0.0400659,-0.002250894,-0.007542592,0.001331399,0.01567548,0.008849237,0.05893454
353,3.53,40.68332,-75.289,110.0222,20.88,270.7072,8,10,1422118169,-0.03898621,0.03118896,-0.9989471,25.25084,9.606636,-24.25912,280.5053,292.8653,25,-0.03948216,-0.02347284,-0.06032513,0.3861766,-0.01917821,-0.03984202,-0.04514406,-0.001210445,-0.004005864,0.001827827,-0.01547845,-0.0213936
354,3.54,40.68332,-75.289,110.0222,20.88,270.7072,8,10,1422118169,-0.02148438,0.01269531,-0.9295044,25.32161,9.252747,-24.19092,280.4576,292.8175,25,-0.0125315,-0.02650325,-0.0576111,0.3861817,-0.0191935,-0.04016589,-0.0414798,-0.002338608,-0.0002786367,-0.01980937,-0.008966129,6.227446E-005
355,3.55,40.68332,-75.289,110.0222,20.88,270.7072,8,10,1422118169,-0.07196045,-0.04502869,-0.9590912,25.32161,9.252747,-24.19092,280.4576,292.8175,25,0.003335876,-0.02609605,-0.05379399,0.3861898,-0.01920589,-0.04037723,-0.01452914,-0.005369063,0.002435264,-0.002295319,-0.02767095,0.06949628
356,3.56,40.68332,-75.289,110.0222,20.88,270.7072,8,10,1422118169,-0.02642822,-0.01448059,-0.9517517,25.28624,9.429695,-24.02039,280.4137,292.7737,25,0.003335876,-0.02609605,-0.05379399,0.3861898,-0.01920589,-0.04037723,-0.01452914,-0.005369063,0.002435264,-0.002295319,-0.02767095,0.06949628
357,3.57,40.68332,-75.289,110.0222,20.88,270.7072,8,10,1422118169,-0.02642822,-0.01448059,-0.9517517,25.28624,9.429695,-24.02039,280.4137,292.7737,25,-0.02483211,-0.02431946,-0.05404965,0.3861898,-0.01920589,-0.04037723,-0.01452914,-0.005369063,0.002435264,-0.002295319,-0.02767095,0.06949628
358,3.58,40.68332,-75.289,110.0222,20.88,270.7072,8,10,1422118169,-0.02642822,-0.01448059,-0.9517517,25.28624,9.429695,-24.02039,280.4137,292.7737,25,-0.02483211,-0.02431946,-0.05404965,0.3861898,-0.01920589,-0.04037723,-0.01452914,-0.005369063,0.002435264,-0.002295319,-0.02767095,0.06949628
359,3.59,40.68332,-75.289,110.0222,20.88,270.7072,8,10,1422118169,-0.02642822,-0.01448059,-0.9517517,25.28624,9.429695,-24.02039,280.4137,292.7737,25,-0.02483211,-0.02431946,-0.05404965,0.3861898,-0.01920589,-0.04037723,-0.01452914,-0.005369063,0.002435264,-0.002295319,-0.02767095,0.06949628
360,3.6,40.68332,-75.289,110.0222,20.88,270.7072,8,10,1422118169,-0.003875732,0.0319519,-0.9989624,24.7555,9.323532,-24.32727,280.3334,292.6934,25,0.004537228,-0.02117107,-0.06365781,0.3862837,-0.01961772,-0.03865949,-0.001150005,-0.0001083312,0.001271277,0.02100562,0.00830143,0.06490221
361,3.61,40.68332,-75.289,110.0222,20.88,270.7072,8,10,1422118169,-0.03894043,0.03231812,-0.9393768,24.7555,9.323532,-24.32727,280.3334,292.6934,25,0.009474728,-0.02351944,-0.06359442,0.3862799,-0.01967082,-0.03859786,0.009886404,-0.001077236,0.0001451588,0.02064673,-0.032912,0.03636961
362,3.62,40.68332,-75.289,110.0222,20.88,270.7072,8,10,1422118169,-0.06608582,0.003585815,-1.001907,24.89703,9.677414,-24.12268,280.3006,292.6606,25,0.01436163,-0.02461746,-0.05985694,0.3862319,-0.01911568,-0.0383505,0.007493384,-0.002383946,-0.003549758,-0.01983997,-0.006022983,0.05970531
363,3.63,40.68332,-75.289,110.0222,20.88,270.7072,8,10,1422118169,-0.05415344,-0.004379272,-0.9669952,24.89703,9.677414,-24.12268,280.3006,292.6606,25,0.00705285,-0.024814,-0.06360321,0.3862419,-0.01916081,-0.03826285,0.01238029,-0.003481989,0.0001876602,-0.04694021,-0.0346677,-0.00282271
364,3.64,40.68332,-75.289,110.0222,20.88,270.7072,8,10,1422118169,-0.009811401,0.03721619,-0.9766998,24.72012,9.783577,-24.29321,280.2718,292.6318,25,-0.0002149171,-0.03235821,-0.05376709,0.3862419,-0.01916081,-0.03826285,0.01238029,-0.003481989,0.0001876602,-0.04694021,-0.0346677,-0.00282271
365,3.65,40.68332,-75.289,110.0222,20.88,270.7072,8,10,1422118169,0.01347351,0.0259552,-1.01413,24.72012,9.783577,-24.29321,280.2718,292.6318,25,-0.0002149171,-0.03235821,-0.05376709,0.3862419,-0.01916081,-0.03826285,0.01238029,-0.003481989,0.0001876602,-0.04694021,-0.0346677,-0.00282271
366,3.66,40.68332,-75.289,110.0222,20.88,270.7072,8,10,1422118169,0.01347351,0.0259552,-1.01413,24.72012,9.783577,-24.29321,280.2718,292.6318,25,-0.0002149171,-0.03235821,-0.05376709,0.3862419,-0.01916081,-0.03826285,0.01238029,-0.003481989,0.0001876602,-0.04694021,-0.0346677,-0.00282271
367,3.67,40.68332,-75.289,110.0222,20.88,270.7072,8,10,1422118169,0.01347351,0.0259552,-1.01413,24.72012,9.783577,-24.29321,280.2718,292.6318,25,-0.0002149171,-0.03235821,-0.05376709,0.3862419,-0.01916081,-0.03826285,0.01238029,-0.003481989,0.0001876602,-0.04694021,-0.0346677,-0.00282271
368,3.68,40.68332,-75.289,110.0222,20.88,270.7072,8,10,1422118169,-0.03971863,0.004669189,-1.022247,24.7555,9.889748,-24.46371,280.2154,292.5754,25,0.00336304,-0.02611203,-0.05747954,0.3861506,-0.0199078,-0.03692668,-0.001061731,-0.00137385,-0.006090061,-0.01982571,-0.0322491,-0.02312705
369,3.69,40.68332,-75.289,110.0222,20.88,270.7072,8,10,1422118169,-0.05102539,0.03630066,-1.047577,24.7555,9.889748,-24.46371,280.2154,292.5754,25,0.00336304,-0.02611203,-0.05747954,0.3861506,-0.0199078,-0.03692668,-0.001061731,-0.00137385,-0.006090061,-0.01982571,-0.0322491,-0.02312705
370,3.7,40.68332,-75.289,110.0222,20.88,270.7072,8,10,1422118169,-0.01966858,0.007141113,-1.063858,24.5432,10.24364,-24.39551,280.1991,292.5591,25,-0.007296262,-0.04123266,-0.06603281,0.3861513,-0.01990183,-0.0369192,0.001390512,-0.004979549,0.002564016,-0.03113844,-0.0006101535,-0.04845624
371,3.71,40.68332,-75.289,110.0222,20.88,270.7072,8,10,1422118169,0.0141449,0.003250122,-0.9604645,24.5432,10.24364,-24.39551,280.1991,292.5591,25,0.002172873,-0.02738182,-0.05870672,0.3861121,-0.020093,-0.03697317,-0.009268786,-0.02010022,-0.005989388,0.0004093391,-0.02982364,-0.06474318
372,3.72,40.68332,-75.289,110.0222,20.88,270.7072,8,10,1422118169,-0.01702881,-0.01641846,-1.024612,24.22476,10.42058,-24.42957,280.1898,292.5497,25,0.009828396,-0.03837455,-0.07328513,0.3860948,-0.02021982,-0.03716815,0.000200354,-0.006249435,0.001336571,0.003831798,-0.01739945,0.002873993
373,3.73,40.68332,-75.289,110.0222,20.88,270.7072,8,10,1422118169,-0.01702881,-0.01641846,-1.024612,24.22476,10.42058,-24.42957,280.1898,292.5497,25,0.009828396,-0.03837455,-0.07328513,0.3860948,-0.02021982,-0.03716815,0.000200354,-0.006249435,0.001336571,0.003831798,-0.01739945,0.002873993
374,3.74,40.68332,-75.289,110.0222,20.88,270.7072,8,10,1422118169,-0.01702881,-0.01641846,-1.024612,24.22476,10.42058,-24.42957,280.1898,292.5497,25,0.009828396,-0.03837455,-0.07328513,0.3860948,-0.02021982,-0.03716815,0.000200354,-0.006249435,0.001336571,0.003831798,-0.01739945,0.002873993
375,3.75,40.68332,-75.289,110.0222,20.88,270.7072,8,10,1422118169,-0.01702881,-0.01641846,-1.024612,24.22476,10.42058,-24.42957,280.1898,292.5497,25,0.009828396,-0.03837455,-0.07328513,0.3860948,-0.02021982,-0.03716815,0.000200354,-0.006249435,0.001336571,0.003831798,-0.01739945,0.002873993
376,3.76,40.68332,-75.289,110.0222,20.88,270.7072,8,10,1422118169,0.003387451,0.003265381,-1.001083,23.97708,11.02218,-24.39545,280.197,292.557,25,0.01326148,-0.03204316,-0.05734132,0.3859867,-0.01961766,-0.03591372,-0.001895426,-0.0223694,-0.003450184,-0.02017591,-0.01938073,-0.002424038
377,3.77,40.68332,-75.289,110.0222,20.88,270.7072,8,10,1422118169,-0.0004272461,0.03536987,-1.091553,23.97708,11.02218,-24.39545,280.197,292.557,25,-0.00356544,-0.04728229,-0.0585741,0.3859703,-0.02015342,-0.03442122,0.01120525,-0.01093039,0.003251918,-0.008821066,-0.03813756,0.03343016
378,3.78,40.68332,-75.289,110.0222,20.88,270.7072,8,10,1422118169,-0.01226807,0.05023193,-1.029388,24.08323,11.19913,-24.70236,280.205,292.565,25,-0.007613711,-0.02639885,-0.06125617,0.3860013,-0.02037187,-0.03433161,-0.005621661,-0.02616958,0.00201901,0.02374591,-0.03105948,-0.001880023
379,3.79,40.68332,-75.289,110.0222,20.88,270.7072,8,10,1422118169,0.0001831055,0.02583313,-0.958252,24.08323,11.19913,-24.70236,280.205,292.565,25,0.02442625,-0.0355287,-0.06950105,0.3859707,-0.02049207,-0.03450069,-0.009669925,-0.005286202,-0.0006632577,0.008210377,0.01573808,-0.03019335
380,3.8,40.68332,-75.289,110.0222,20.88,270.7072,8,10,1422118169,-0.0730896,-0.05914307,-1.006607,24.36628,11.19913,-25.04343,280.2102,292.5702,25,-0.002822152,-0.02011725,-0.06372998,0.3859707,-0.02049207,-0.03450069,-0.009669925,-0.005286202,-0.0006632577,0.008210377,0.01573808,-0.03019335
381,3.81,40.68332,-75.289,110.0222,20.88,270.7072,8,10,1422118169,-0.0730896,-0.05914307,-1.006607,24.36628,11.19913,-25.04343,280.2102,292.5702,25,-0.002822152,-0.02011725,-0.06372998,0.3859707,-0.02049207,-0.03450069,-0.009669925,-0.005286202,-0.0006632577,0.008210377,0.01573808,-0.03019335
382,3.82,40.68332,-75.289,110.0222,20.88,270.7072,8,10,1422118169,-0.0730896,-0.05914307,-1.006607,24.36628,11.19913,-25.04343,280.2102,292.5702,25,-0.002822152,-0.02011725,-0.06372998,0.3859707,-0.02049207,-0.03450069,-0.009669925,-0.005286202,-0.0006632577,0.008210377,0.01573808,-0.03019335
383,3.83,40.68332,-75.289,110.0222,20.88,270.7072,8,10,1422118169,-0.04516602,0.03761292,-1.12027,24.43705,10.91602,-25.31622,280.2079,292.5679,25,0.01325988,-0.02960104,-0.0635068,0.3858876,-0.01994185,-0.03416394,-0.004876631,0.0009999425,-0.0031377,-0.05316071,-0.09330036,-0.007389302
384,3.84,40.68332,-75.289,110.0222,20.88,270.7072,8,10,1422118169,-0.01939392,0.06109619,-0.9613342,24.82626,11.16374,-25.75955,280.2072,292.5672,25,0.003130812,-0.01010776,-0.06745654,0.3858813,-0.01989065,-0.03388611,0.01120541,-0.008483931,-0.002914788,-0.03969239,-0.01187645,-0.08564116
385,3.85,40.68332,-75.289,110.0222,20.88,270.7072,8,10,1422118169,-0.05479431,-0.00189209,-1.002365,24.82626,11.16374,-25.75955,280.2072,292.5672,25,0.003341735,-0.02121714,-0.06735347,0.3858155,-0.01983279,-0.03383231,0.001076344,0.01100932,-0.006864585,-0.02534588,0.003787059,-0.1210386
386,3.86,40.68332,-75.289,110.0222,20.88,270.7072,8,10,1422118169,-0.04808044,-0.01205444,-1.032074,24.75549,11.44685,-25.75955,280.213,292.5729,25,0.01064519,-0.01979687,-0.06607569,0.3857488,-0.01979593,-0.03483419,0.001280168,-0.0001001119,-0.006761429,0.0003887042,0.02626904,0.03786331
387,3.87,40.68332,-75.289,110.0222,20.88,270.7072,8,10,1422118169,-0.0262146,0.008010864,-1.010971,24.75549,11.44685,-25.75955,280.213,292.5729,25,-0.003867975,-0.0275749,-0.06858546,0.3856978,-0.01974978,-0.03473425,0.008583626,0.001320106,-0.005483778,-0.03505772,-0.03661935,-0.003163189
388,3.88,40.68332,-75.289,110.0222,20.88,270.7072,8,10,1422118169,-0.02333069,0.0259552,-0.9803467,24.75549,11.44685,-25.75955,280.213,292.5729,25,-0.016412,-0.01304203,-0.06391001,0.3856187,-0.01980027,-0.03471126,-0.005929532,-0.006457968,-0.007993675,-0.02829339,-0.04675873,-0.03287225
389,3.89,40.68332,-75.289,110.0222,20.88,270.7072,8,10,1422118169,-0.02333069,0.0259552,-0.9803467,24.57858,11.12835,-25.72546,280.2137,292.5736,25,-0.016412,-0.01304203,-0.06391001,0.3856187,-0.01980027,-0.03471126,-0.005929532,-0.006457968,-0.007993675,-0.02829339,-0.04675873,-0.03287225
390,3.9,40.68332,-75.289,110.0222,20.88,270.7072,8,10,1422118169,-0.02333069,0.0259552,-0.9803467,24.57858,11.12835,-25.72546,280.2137,292.5736,25,-0.016412,-0.01304203,-0.06391001,0.3856187,-0.01980027,-0.03471126,-0.005929532,-0.006457968,-0.007993675,-0.02829339,-0.04675873,-0.03287225
391,3.91,40.68332,-75.289,110.0222,20.88,270.7072,8,10,1422118169,-0.02333069,0.0259552,-0.9803467,24.57858,11.12835,-25.72546,280.2137,292.5736,25,-0.016412,-0.01304203,-0.06391001,0.3856187,-0.01980027,-0.03471126,-0.005929532,-0.006457968,-0.007993675,-0.02829339,-0.04675873,-0.03287225
392,3.92,40.68332,-75.289,110.0222,20.88,270.7072,8,10,1422118169,-0.04978943,0.05619812,-0.9990387,24.72011,11.19912,-25.93005,280.2133,292.5733,25,-0.02477033,-0.02191462,-0.06881475,0.3853542,-0.01963809,-0.03427315,0.0008588032,0.02455951,-0.01313391,0.004183401,0.04651359,0.02619756
393,3.93,40.68332,-75.289,110.0222,20.88,270.7072,8,10,1422118169,-0.09115601,-0.02241516,-1.032227,24.72011,11.19912,-25.93005,280.2133,292.5733,25,-0.00048869,-0.01510891,-0.06129851,0.3852175,-0.0206951,-0.03519864,-0.02683498,-0.0008057227,-0.00822319,-0.02910862,0.02100674,0.000127892
394,3.94,40.68332,-75.289,110.0222,20.88,270.7072,8,10,1422118169,-0.03811646,-0.04171753,-0.9468689,24.47243,11.02217,-26.10056,280.2145,292.5745,25,0.002358762,-0.0348147,-0.06478059,0.3851727,-0.02065483,-0.03534398,-0.002553339,0.00599994,-0.0007070861,-0.07051555,-0.05775178,-0.03306426
395,3.95,40.68332,-75.289,110.0222,20.88,270.7072,8,10,1422118169,-0.03865051,-0.02223206,-0.9536285,24.47243,11.02217,-26.10056,280.2145,292.5745,25,0.002358762,-0.0348147,-0.06478059,0.3851727,-0.02065483,-0.03534398,-0.002553339,0.00599994,-0.0007070861,-0.07051555,-0.05775178,-0.03306426
396,3.96,40.68332,-75.289,110.0222,20.88,270.7072,8,10,1422118169,-0.007720947,0.08285522,-1.023071,24.47243,11.02217,-26.10056,280.2145,292.5745,25,0.005610748,-0.007626761,-0.07851585,0.3851372,-0.0207344,-0.03520891,0.0002941154,-0.01370588,-0.004189233,-0.0173964,-0.07691916,0.05229652
397,3.97,40.68332,-75.289,110.0222,20.88,270.7072,8,10,1422118169,-0.007720947,0.08285522,-1.023071,24.68472,10.88062,-26.44156,280.2105,292.5705,25,0.01323644,-0.02836666,-0.06351826,0.3851372,-0.0207344,-0.03520891,0.0002941154,-0.01370588,-0.004189233,-0.0173964,-0.07691916,0.05229652
398,3.98,40.68332,-75.289,110.0222,20.88,270.7072,8,10,1422118169,-0.007720947,0.08285522,-1.023071,24.68472,10.88062,-26.44156,280.2105,292.5705,25,0.01323644,-0.02836666,-0.06351826,0.3851372,-0.0207344,-0.03520891,0.0002941154,-0.01370588,-0.004189233,-0.0173964,-0.07691916,0.05229652
399,3.99,40.68332,-75.289,110.0222,20.88,270.7072,8,10,1422118169,-0.02088928,-0.01565552,-0.8573608,25.03855,11.02217,-26.44156,280.2078,292.5678,25,0.001969408,-0.01383565,-0.06620379,0.3849449,-0.02018836,-0.03682467,-0.02210342,0.00428703,-0.0008577491,0.01030086,-0.01382135,-0.1143459
400,4,40.68332,-75.289,110.0222,20.88,270.7072,8,10,1422118169,-0.05555725,-0.01986694,-0.9896393,25.03855,11.02217,-26.44156,280.2078,292.5678,25,0.006767891,-0.0112199,-0.06004363,0.3848991,-0.02012892,-0.03700362,-0.00010624,0.007276115,-0.005612688,-0.03934972,-0.006523374,-0.03196915
401,4.01,40.68332,-75.289,110.0222,20.88,270.7072,8,10,1422118169,-0.03921509,-0.005844116,-1.098999,25.1447,11.12833,-26.74847,280.2064,292.5663,25,0.001819738,-0.006424077,-0.06504398,0.384886,-0.02002919,-0.03695887,0.00469225,0.009891804,0.0005472737,-0.03554307,-0.0568174,0.009477376
402,4.02,40.68332,-75.289,110.0222,20.88,270.7072,8,10,1422118169,-0.06637573,0.07659912,-1.079376,25.1447,11.12833,-26.74847,280.2064,292.5663,25,-0.006704774,-0.01031655,-0.0601664,0.384886,-0.02002919,-0.03695887,0.00469225,0.009891804,0.0005472737,-0.03554307,-0.0568174,0.009477376
403,4.03,40.68332,-75.289,110.0222,20.88,270.7072,8,10,1422118169,-0.05297852,0.02494812,-1.03537,25.00317,10.84523,-26.88492,280.1996,292.5595,25,-0.04319115,-0.01621545,-0.07393787,0.3847713,-0.02122196,-0.03820539,-0.00878858,0.01078542,0.000424809,-0.04517085,0.03840302,-0.08033097
404,4.04,40.68332,-75.289,110.0222,20.88,270.7072,8,10,1422118169,-0.07765198,-0.03829956,-0.9315796,25.00317,10.84523,-26.88492,280.1996,292.5595,25,0.006809437,-0.01246493,-0.06248921,0.3846632,-0.02112669,-0.038443,-0.04527495,0.00488647,-0.01334679,-0.03186901,-0.01348541,-0.03633171
405,4.05,40.68332,-75.289,110.0222,20.88,270.7072,8,10,1422118169,-0.07765198,-0.03829956,-0.9315796,25.00317,10.49136,-26.95312,280.1856,292.5456,25,0.006809437,-0.01246493,-0.06248921,0.3846632,-0.02112669,-0.038443,-0.04527495,0.00488647,-0.01334679,-0.03186901,-0.01348541,-0.03633171
406,4.06,40.68334,-75.28924,111.2239,20.6,279.5161,8,10,1422118171,-0.003326416,0.05625916,-1.02092,25.00317,10.13747,-26.88492,280.1626,292.5226,25,0.0129174,-0.01109073,-0.0649071,0.3845894,-0.02184924,-0.03744714,0.01353309,-0.003507295,-0.002941709,-0.02536324,-0.02028751,-0.04601404
407,4.07,40.68334,-75.28924,111.2239,20.6,279.5161,8,10,1422118171,-0.003326416,0.05625916,-1.02092,25.00317,10.13747,-26.88492,280.1626,292.5226,25,0.0129174,-0.01109073,-0.0649071,0.3845894,-0.02184924,-0.03744714,0.01353309,-0.003507295,-0.002941709,-0.02536324,-0.02028751,-0.04601404
408,4.08,40.68334,-75.28924,111.2239,20.6,279.5161,8,10,1422118171,-0.003326416,0.05625916,-1.02092,25.00317,10.13747,-26.88492,280.1626,292.5226,25,0.0129174,-0.01109073,-0.0649071,0.3845894,-0.02184924,-0.03744714,0.01353309,-0.003507295,-0.002941709,-0.02536324,-0.02028751,-0.04601404
409,4.09,40.68334,-75.28924,111.2239,20.6,279.5161,8,10,1422118171,-0.006088257,0.008453369,-1.008636,24.57858,10.20825,-26.88492,280.1449,292.5049,25,0.03033554,-0.0279347,-0.06091954,0.3845185,-0.02185827,-0.03736554,0.01083904,0.01000527,-0.004316569,0.0239775,0.06300022,-0.0763304
410,4.1,40.68334,-75.28924,111.2239,20.6,279.5161,8,10,1422118171,-0.05421448,-0.00642395,-0.9637299,24.57858,10.20825,-26.88492,280.1449,292.5049,25,0.01410224,-0.008597217,-0.06614839,0.3845296,-0.0218823,-0.0372197,0.02825718,-0.006838734,-0.0003291458,0.01853898,0.01904805,-0.02185162
411,4.11,40.68334,-75.28924,111.2239,20.6,279.5161,8,10,1422118171,-0.007736206,0.03063965,-0.9917603,24.29552,10.13747,-26.68027,280.1284,292.4884,25,0.03763739,-0.02407231,-0.06580725,0.3844822,-0.0218874,-0.03701954,0.01202389,0.0124987,-0.005558128,0.0157824,-0.02855771,-0.009560975
412,4.12,40.68334,-75.28924,111.2239,20.6,279.5161,8,10,1422118171,-0.08514404,0.04348755,-1.035461,24.29552,10.13747,-26.68027,280.1284,292.4884,25,-0.002771552,-0.02136761,-0.06740408,0.3844098,-0.0230458,-0.0351215,0.03556988,-0.002984751,-0.005217456,0.01529335,-0.004474634,0.00735767
413,4.13,40.68334,-75.28924,111.2239,20.6,279.5161,8,10,1422118171,-0.08514404,0.04348755,-1.035461,24.29552,10.13747,-26.68027,280.1284,292.4884,25,-0.002771552,-0.02136761,-0.06740408,0.3844098,-0.0230458,-0.0351215,0.03556988,-0.002984751,-0.005217456,0.01529335,-0.004474634,0.00735767
414,4.14,40.68334,-75.28924,111.2239,20.6,279.5161,8,10,1422118171,-0.05259705,-0.03610229,-0.9829102,23.87092,10.20825,-26.20285,280.1177,292.4777,25,0.02788489,-0.02677116,-0.06340827,0.3843586,-0.02304076,-0.03504718,-0.004839059,-0.0002800891,-0.006814418,-0.06211947,0.008447545,-0.03634078
415,4.15,40.68334,-75.28924,111.2239,20.6,279.5161,8,10,1422118171,-0.03250122,-0.0266571,-0.9914398,24.08321,10.42058,-25.99823,280.1106,292.4706,25,0.02705026,0.01766102,-0.06504904,0.3842803,-0.0240549,-0.03221913,0.02583506,-0.005691256,-0.002819525,-0.02855695,-0.06831585,0.0162817
